time,seconds_elapsed,z,y,x
1744896807610392000,0.14339208984375,-0.0857992172241211,-0.029648303985595703,-0.2752094864845276
1744896807627222000,0.160221923828125,-0.23227405548095703,0.008362650871276855,-0.20420943200588226
1744896807644020700,0.177020751953125,-0.2827157974243164,0.08019697666168213,-0.16987434029579163
1744896807660815400,0.1938154296875,-0.17985153198242188,0.14556729793548584,-0.22512009739875793
1744896807677623800,0.210623779296875,-0.033974647521972656,0.19495975971221924,-0.29538124799728394
1744896807694438400,0.2274384765625,0.08139801025390625,0.24377310276031494,-0.3162124752998352
1744896807711264300,0.24426416015625,0.14258098602294922,0.276228666305542,-0.33853429555892944
1744896807728076000,0.261075927734375,0.1332721710205078,0.33054816722869873,-0.3428921699523926
1744896807744883200,0.27788330078125,0.07487869262695312,0.37788891792297363,-0.3387126624584198
1744896807761687600,0.2946875,0.018837928771972656,0.4247349500656128,-0.21734954416751862
1744896807778531600,0.311531494140625,0.038369178771972656,0.4220775365829468,-0.14095744490623474
1744896807795299600,0.328299560546875,0.009489059448242188,0.377658486366272,-0.11225917935371399
1744896807812136400,0.345136474609375,0.014657020568847656,0.3424631357192993,-0.13263839483261108
1744896807828927000,0.361927001953125,-0.12990856170654297,0.3390601873397827,-0.1786017119884491
1744896807845753600,0.378753662109375,-0.3359699249267578,0.3599759340286255,-0.0861603319644928
1744896807862564600,0.395564697265625,-0.5306034088134766,0.3519287109375,0.1097629964351654
1744896807879360300,0.4123603515625,-0.668635368347168,0.2615032196044922,0.30877289175987244
1744896807896170800,0.429170654296875,-0.6979122161865234,0.15000581741333008,0.41498586535453796
1744896807912998400,0.445998291015625,-0.5664548873901367,0.10096490383148193,0.44231662154197693
1744896807929792800,0.462792724609375,-0.29328346252441406,0.10673904418945312,0.2865506708621979
1744896807946616300,0.4796162109375,0.03967475891113281,0.10990452766418457,0.027254194021224976
1744896807963435000,0.49643505859375,0.3674764633178711,0.07731258869171143,-0.16449987888336182
1744896807980225800,0.513225830078125,0.6205539703369141,0.06952691078186035,-0.22174669802188873
1744896807997038300,0.530038330078125,0.7384853363037109,0.08901262283325195,-0.31460368633270264
1744896808013848300,0.546848388671875,0.6415176391601562,0.1424494981765747,-0.4344319701194763
1744896808030675000,0.563675048828125,0.36141014099121094,0.2426701784133911,-0.4566388726234436
1744896808047486500,0.580486572265625,0.01450347900390625,0.29554128646850586,-0.34213894605636597
1744896808064281300,0.59728125,-0.2898130416870117,0.29111695289611816,-0.14970414340496063
1744896808081093400,0.61409326171875,-0.431671142578125,0.21880948543548584,0.009598657488822937
1744896808097902000,0.630902099609375,-0.4510040283203125,0.09878039360046387,0.08548237383365631
1744896808114713600,0.647713623046875,-0.38631343841552734,-0.015747785568237305,0.08818714320659637
1744896808131531800,0.66453173828125,-0.2966165542602539,-0.0905768871307373,0.013721704483032227
1744896808148339500,0.68133935546875,-0.21103191375732422,-0.12204217910766602,-0.07981699705123901
1744896808165150000,0.69814990234375,-0.1636495590209961,-0.09026110172271729,-0.21906206011772156
1744896808181961200,0.714961181640625,-0.14850807189941406,-0.02161848545074463,-0.34633320569992065
1744896808198772200,0.731772216796875,-0.16914844512939453,0.06275403499603271,-0.38724032044410706
1744896808215583500,0.74858349609375,-0.1802692413330078,0.1501913070678711,-0.3848589062690735
1744896808232411100,0.7654111328125,-0.16013813018798828,0.24105620384216309,-0.39018142223358154
1744896808249204200,0.782204345703125,-0.1344928741455078,0.2986569404602051,-0.36855483055114746
1744896808266030000,0.799030029296875,-0.0707559585571289,0.3693011999130249,-0.3442624807357788
1744896808282841600,0.815841552734375,-0.006168365478515625,0.4033001661300659,-0.3141416907310486
1744896808299651000,0.832651123046875,0.12004947662353516,0.41138720512390137,-0.2945537567138672
1744896808316464600,0.849464599609375,0.2730426788330078,0.39141523838043213,-0.28231197595596313
1744896808333274600,0.866274658203125,0.3631324768066406,0.3185405731201172,-0.27950310707092285
1744896808350082600,0.88308251953125,0.3561677932739258,0.2849477529525757,-0.2706906795501709
1744896808366899700,0.899899658203125,0.26289939880371094,0.2616332769393921,-0.27414968609809875
1744896808383708000,0.9167080078125,0.1436777114868164,0.22883105278015137,-0.32454150915145874
1744896808400498200,0.933498291015625,-0.004565238952636719,0.16053879261016846,-0.32398462295532227
1744896808417334000,0.950333984375,-0.1901845932006836,0.11448955535888672,-0.2825165092945099
1744896808434140700,0.967140625,-0.34812259674072266,0.09665811061859131,-0.23804053664207458
1744896808450934800,0.983934814453125,-0.4779386520385742,0.08653318881988525,-0.19603408873081207
1744896808467749400,1.000749267578125,-0.5410909652709961,0.09533178806304932,-0.13334479928016663
1744896808484561000,1.017560791015625,-0.5499391555786133,0.09769570827484131,-0.0562136247754097
1744896808501371100,1.03437109375,-0.480224609375,0.08763456344604492,-0.04670073837041855
1744896808518184400,1.051184326171875,-0.2909812927246094,0.08380842208862305,-0.09933514147996902
1744896808534988800,1.06798876953125,-0.07614326477050781,0.09771585464477539,-0.18487311899662018
1744896808551825000,1.084824951171875,0.10137081146240234,0.12401950359344482,-0.25282689929008484
1744896808568629800,1.101629638671875,0.1967153549194336,0.16389238834381104,-0.23681500554084778
1744896808585420300,1.118420166015625,0.2501363754272461,0.19814348220825195,-0.2251894474029541
1744896808602240800,1.13524072265625,0.2581930160522461,0.2519497871398926,-0.30570393800735474
1744896808619038200,1.1520380859375,0.2530031204223633,0.30058014392852783,-0.42101308703422546
1744896808635859700,1.168859619140625,0.2053842544555664,0.33809471130371094,-0.5036391615867615
1744896808652671000,1.1856708984375,0.11109542846679688,0.34592950344085693,-0.48223304748535156
1744896808669482200,1.202482177734375,0.018904685974121094,0.31966400146484375,-0.40113240480422974
1744896808686292700,1.219292724609375,-0.04508686065673828,0.28127002716064453,-0.33151599764823914
1744896808703104800,1.236104736328125,-0.052870750427246094,0.22544240951538086,-0.283208429813385
1744896808719914800,1.252914794921875,-0.05965423583984375,0.17341649532318115,-0.2738572955131531
1744896808736744400,1.269744384765625,-0.05034065246582031,0.14018535614013672,-0.2890019118785858
1744896808753551400,1.28655126953125,-0.044979095458984375,0.13586294651031494,-0.3118314743041992
1744896808770358000,1.30335791015625,-0.057351112365722656,0.13169384002685547,-0.31024426221847534
1744896808787177500,1.320177490234375,-0.059182167053222656,0.1095043420791626,-0.2846754789352417
1744896808803984100,1.336984130859375,-0.03835582733154297,0.09414184093475342,-0.2876966595649719
1744896808820801500,1.353801513671875,0.005946159362792969,0.09033060073852539,-0.3173624277114868
1744896808837600800,1.370600830078125,0.06129741668701172,0.10509955883026123,-0.38364076614379883
1744896808854420000,1.387419921875,0.10674476623535156,0.13428843021392822,-0.442563533782959
1744896808871231000,1.40423095703125,0.05650138854980469,0.1685025691986084,-0.4841598868370056
1744896808888035300,1.421035400390625,-0.06682968139648438,0.1996394395828247,-0.5134592652320862
1744896808904831000,1.4378310546875,-0.12775611877441406,0.2460036277770996,-0.5018760561943054
1744896808921667800,1.454667724609375,-0.19810962677001953,0.2580620050430298,-0.499636709690094
1744896808938468400,1.47146826171875,-0.2503223419189453,0.27098214626312256,-0.5055518746376038
1744896808955272700,1.488272705078125,-0.31220245361328125,0.2929741144180298,-0.48588183522224426
1744896808972082000,1.50508203125,-0.3334321975708008,0.3055006265640259,-0.45188114047050476
1744896808988898800,1.52189892578125,-0.2742757797241211,0.3000173568725586,-0.42915159463882446
1744896809005691000,1.53869091796875,-0.1695842742919922,0.279620885848999,-0.4192933440208435
1744896809022514700,1.5555146484375,-0.042298316955566406,0.26280641555786133,-0.4206426441669464
1744896809039312400,1.5723125,0.037064552307128906,0.22794175148010254,-0.39698559045791626
1744896809056151800,1.58915185546875,0.07600021362304688,0.21601104736328125,-0.3399733006954193
1744896809072946400,1.605946533203125,0.08437633514404297,0.21295297145843506,-0.30500808358192444
1744896809089759200,1.62275927734375,0.08606338500976562,0.2176218032836914,-0.30635085701942444
1744896809106569500,1.639569580078125,0.08559894561767578,0.23788535594940186,-0.3446170389652252
1744896809123380500,1.65638037109375,0.056580543518066406,0.2586324214935303,-0.3631784915924072
1744896809140192000,1.67319189453125,0.02799224853515625,0.2770923376083374,-0.32686546444892883
1744896809157000000,1.69,-0.022832870483398438,0.2621486186981201,-0.288401335477829
1744896809173816800,1.70681689453125,-0.07436561584472656,0.24817824363708496,-0.2652355432510376
1744896809190625000,1.723625,-0.12498664855957031,0.2589031457901001,-0.23986735939979553
1744896809207436000,1.74043603515625,-0.1837177276611328,0.25009047985076904,-0.2145257592201233
1744896809224248000,1.757248046875,-0.1794595718383789,0.21817553043365479,-0.1905904859304428
1744896809241071900,1.77407177734375,-0.158660888671875,0.18328070640563965,-0.16858398914337158
1744896809257874700,1.790874755859375,-0.10249710083007812,0.14312028884887695,-0.15830454230308533
1744896809274696400,1.807696533203125,-0.018387794494628906,0.07967805862426758,-0.15853816270828247
1744896809291511800,1.82451171875,0.051201820373535156,0.01213228702545166,-0.1382545530796051
1744896809308316400,1.84131640625,0.0924692153930664,-0.04709827899932861,-0.11622665822505951
1744896809325106700,1.858106689453125,0.08737468719482422,-0.09485161304473877,-0.09421521425247192
1744896809341942500,1.874942626953125,0.016965866088867188,-0.10578596591949463,-0.06220916658639908
1744896809358745600,1.89174560546875,-0.08123588562011719,-0.06629574298858643,-0.036431413143873215
1744896809375564500,1.908564453125,-0.18689441680908203,-0.014568805694580078,-0.049045439809560776
1744896809392351000,1.92535107421875,-0.21620941162109375,0.030637145042419434,-0.08668839931488037
1744896809409172200,1.942172119140625,-0.20085716247558594,0.0708765983581543,-0.11278203129768372
1744896809425977300,1.958977294921875,-0.12826156616210938,0.10724043846130371,-0.1385224461555481
1744896809442779000,1.97577880859375,-0.01957988739013672,0.1445009708404541,-0.20923066139221191
1744896809459602200,1.992602294921875,0.07639884948730469,0.17957663536071777,-0.28884872794151306
1744896809476409900,2.009409912109375,0.14110279083251953,0.17084503173828125,-0.31921154260635376
1744896809493230000,2.02622998046875,0.1545276641845703,0.13682401180267334,-0.28949621319770813
1744896809510032600,2.04303271484375,0.16070842742919922,0.11189401149749756,-0.2505091428756714
1744896809526846000,2.059845947265625,0.1546173095703125,0.07573795318603516,-0.15373167395591736
1744896809543657200,2.0766572265625,0.16273880004882812,0.029284119606018066,-0.11405093967914581
1744896809560458800,2.093458740234375,0.10661983489990234,0.043904662132263184,-0.17114871740341187
1744896809577276400,2.1102763671875,-0.017885208129882812,0.15773344039916992,-0.20437724888324738
1744896809594093000,2.127093017578125,-0.1845226287841797,0.15165770053863525,-0.3004622459411621
1744896809610901800,2.14390185546875,-0.33193206787109375,0.16304171085357666,-0.2799956500530243
1744896809627710700,2.160710693359375,-0.34081363677978516,0.20154786109924316,-0.26993638277053833
1744896809644525600,2.177525634765625,-0.2361011505126953,0.10332643985748291,-0.36043840646743774
1744896809661322000,2.194322021484375,-0.024229049682617188,-0.0757606029510498,-0.4569184482097626
1744896809678145500,2.2111455078125,0.1378650665283203,-0.10782480239868164,-0.44694289565086365
1744896809694954200,2.227954345703125,0.18068408966064453,-0.05031275749206543,-0.4584452211856842
1744896809711788300,2.244788330078125,0.11706352233886719,0.13652992248535156,-0.39332064986228943
1744896809728592600,2.261592529296875,-0.06085014343261719,0.21122372150421143,-0.2931070923805237
1744896809745403600,2.278403564453125,-0.264007568359375,0.21914756298065186,-0.20505723357200623
1744896809762184700,2.295184814453125,-0.39919567108154297,0.2376619577407837,-0.19434276223182678
1744896809779017200,2.312017333984375,-0.4231891632080078,0.28490984439849854,-0.2916872501373291
1744896809795850000,2.32885009765625,-0.38898181915283203,0.32815325260162354,-0.4058602452278137
1744896809812644400,2.345644287109375,-0.3024301528930664,0.36014771461486816,-0.47204846143722534
1744896809829447400,2.362447509765625,-0.1558685302734375,0.3764733076095581,-0.5000817775726318
1744896809846270000,2.37927001953125,-0.0006418228149414062,0.36862242221832275,-0.48641419410705566
1744896809863047400,2.39604736328125,0.12908554077148438,0.35308587551116943,-0.43194466829299927
1744896809879892200,2.412892333984375,0.18388843536376953,0.32261788845062256,-0.36130404472351074
1744896809896687000,2.42968701171875,0.22589683532714844,0.33133387565612793,-0.27831798791885376
1744896809913510400,2.446510498046875,0.2397317886352539,0.33022093772888184,-0.27219653129577637
1744896809930329300,2.463329345703125,0.18616676330566406,0.29703259468078613,-0.29674002528190613
1744896809947133000,2.4801328125,0.11049652099609375,0.2876652479171753,-0.2829267978668213
1744896809963934500,2.4969345703125,0.08450603485107422,0.2766737937927246,-0.26040902733802795
1744896809980744700,2.51374462890625,0.048218727111816406,0.23073184490203857,-0.24779047071933746
1744896809997543000,2.53054296875,0.009264945983886719,0.20736277103424072,-0.22093895077705383
1744896810014367000,2.547366943359375,0.00017261505126953125,0.16584932804107666,-0.18528436124324799
1744896810031178200,2.56417822265625,-0.0038013458251953125,0.12340402603149414,-0.20727866888046265
1744896810047989000,2.580989013671875,-0.03763866424560547,0.0862431526184082,-0.21781045198440552
1744896810064801500,2.597801513671875,-0.03149986267089844,0.0827401876449585,-0.23011550307273865
1744896810081600300,2.614600341796875,-0.1007242202758789,0.08516442775726318,-0.2225479632616043
1744896810098422500,2.631422607421875,-0.18587207794189453,0.095420241355896,-0.21449436247348785
1744896810115233300,2.6482333984375,-0.2005939483642578,0.1333712339401245,-0.16744492948055267
1744896810132033300,2.665033203125,-0.1698169708251953,0.13492560386657715,-0.11369359493255615
1744896810148855600,2.68185546875,-0.11129951477050781,0.1325141191482544,-0.10731875151395798
1744896810165667000,2.6986669921875,-0.07791519165039062,0.14158391952514648,-0.16926714777946472
1744896810182483000,2.71548291015625,-0.04725074768066406,0.15746009349822998,-0.23920267820358276
1744896810199298000,2.732298095703125,-0.007952690124511719,0.1838700771331787,-0.27664899826049805
1744896810216114000,2.749114013671875,0.037369728088378906,0.19531011581420898,-0.24068766832351685
1744896810232909000,2.765908935546875,0.05575275421142578,0.1750718355178833,-0.19789224863052368
1744896810249735400,2.7827353515625,0.07117176055908203,0.18132448196411133,-0.19319646060466766
1744896810266546700,2.799546630859375,0.08239936828613281,0.19217050075531006,-0.23536135256290436
1744896810283343400,2.81634326171875,0.07615089416503906,0.2044849395751953,-0.2964211702346802
1744896810300152000,2.833152099609375,0.06929874420166016,0.22201478481292725,-0.33826568722724915
1744896810316980000,2.84997998046875,0.034173011779785156,0.23102033138275146,-0.33382129669189453
1744896810333790500,2.86679052734375,-0.029819488525390625,0.21828997135162354,-0.26862457394599915
1744896810350602200,2.883602294921875,-0.062035560607910156,0.22281455993652344,-0.22706636786460876
1744896810367413500,2.90041357421875,-0.04556751251220703,0.23599600791931152,-0.26808980107307434
1744896810384223700,2.9172236328125,-0.0028352737426757812,0.236916184425354,-0.3485431969165802
1744896810401034800,2.93403466796875,0.03064727783203125,0.23137640953063965,-0.39321282505989075
1744896810417846500,2.950846435546875,0.009593963623046875,0.21290183067321777,-0.36774423718452454
1744896810434657500,2.967657470703125,-0.09119510650634766,0.18919312953948975,-0.29364773631095886
1744896810451451100,2.984451171875,-0.18967056274414062,0.18260538578033447,-0.22568434476852417
1744896810468265500,3.001265380859375,-0.23589324951171875,0.1680898666381836,-0.18706537783145905
1744896810485073400,3.018073486328125,-0.18430709838867188,0.1646263599395752,-0.22504040598869324
1744896810501878000,3.0348779296875,-0.11643600463867188,0.16185879707336426,-0.27682673931121826
1744896810518680300,3.051680419921875,-0.05139732360839844,0.17928576469421387,-0.2602219879627228
1744896810535509800,3.068509765625,-0.03092193603515625,0.20443105697631836,-0.21020036935806274
1744896810552307700,3.0853076171875,-0.05201244354248047,0.21576464176177979,-0.1719912588596344
1744896810569119500,3.102119384765625,-0.02890777587890625,0.23381924629211426,-0.1967187523841858
1744896810585942800,3.11894287109375,0.05248737335205078,0.24076414108276367,-0.26451754570007324
1744896810602754000,3.135754150390625,0.09793853759765625,0.23436403274536133,-0.2989279329776764
1744896810619564300,3.152564208984375,0.13281726837158203,0.20007109642028809,-0.27607572078704834
1744896810636377600,3.169377685546875,0.09326744079589844,0.1670997142791748,-0.22321946918964386
1744896810653186800,3.186186767578125,0.015606880187988281,0.16562211513519287,-0.1780339479446411
1744896810669998300,3.202998291015625,-0.024578094482421875,0.1606895923614502,-0.18373532593250275
1744896810686812700,3.219812744140625,-0.04599761962890625,0.14738953113555908,-0.20268861949443817
1744896810703634200,3.23663427734375,-0.06241798400878906,0.14997446537017822,-0.23965145647525787
1744896810720440800,3.25344091796875,-0.05670928955078125,0.17077958583831787,-0.2711186408996582
1744896810737260500,3.270260498046875,-0.0144195556640625,0.18565893173217773,-0.2554263174533844
1744896810754069200,3.2870693359375,-0.034445762634277344,0.15177512168884277,-0.21070297062397003
1744896810770876400,3.30387646484375,-0.08514022827148438,0.1217278242111206,-0.18680107593536377
1744896810787671600,3.320671630859375,-0.13895797729492188,0.12458670139312744,-0.19845575094223022
1744896810804481300,3.337481201171875,-0.15816116333007812,0.148490309715271,-0.20962375402450562
1744896810821277700,3.354277587890625,-0.103363037109375,0.1508263349533081,-0.21708586812019348
1744896810838107100,3.371107177734375,-0.03668975830078125,0.1507953405380249,-0.2128773331642151
1744896810854932700,3.3879326171875,0.02758312225341797,0.15309381484985352,-0.238230362534523
1744896810871748900,3.404748779296875,0.050721168518066406,0.17462027072906494,-0.27780798077583313
1744896810888556300,3.421556396484375,0.04012298583984375,0.20407509803771973,-0.31045231223106384
1744896810905362700,3.43836279296875,-0.0024585723876953125,0.21928155422210693,-0.30527234077453613
1744896810922181600,3.455181640625,-0.04640388488769531,0.2197192907333374,-0.2645285427570343
1744896810938976500,3.4719765625,-0.06534385681152344,0.19491136074066162,-0.24061539769172668
1744896810955782400,3.488782470703125,-0.05385589599609375,0.1856224536895752,-0.24047672748565674
1744896810972597800,3.50559765625,-0.0278778076171875,0.1576402187347412,-0.251628577709198
1744896810989396200,3.522396240234375,-0.0031347274780273438,0.12385725975036621,-0.24447274208068848
1744896811006219800,3.5392197265625,0.022528648376464844,0.0867762565612793,-0.23186255991458893
1744896811023030500,3.556030517578125,0.022706985473632812,0.07658886909484863,-0.2378241866827011
1744896811039842000,3.572842041015625,0.030763626098632812,0.0994488000869751,-0.23907029628753662
1744896811056653000,3.589653076171875,0.04985237121582031,0.13728022575378418,-0.24539412558078766
1744896811073463300,3.60646337890625,0.03816986083984375,0.1535053253173828,-0.2506357729434967
1744896811090274800,3.62327490234375,0.023548126220703125,0.1700747013092041,-0.25554418563842773
1744896811107074800,3.64007470703125,0.0055675506591796875,0.18258678913116455,-0.2417948693037033
1744896811123906000,3.656906005859375,-0.024303436279296875,0.17419755458831787,-0.23903632164001465
1744896811140708000,3.6737080078125,-0.07651519775390625,0.14483284950256348,-0.22525246441364288
1744896811157517600,3.690517578125,-0.10649681091308594,0.11933040618896484,-0.21695801615715027
1744896811174332000,3.707331787109375,-0.1411914825439453,0.09858834743499756,-0.20425249636173248
1744896811191158000,3.724157958984375,-0.15913009643554688,0.09223556518554688,-0.19755719602108002
1744896811207970300,3.74097021484375,-0.15711688995361328,0.08817124366760254,-0.19220712780952454
1744896811224758300,3.75775830078125,-0.1255178451538086,0.07738566398620605,-0.18272924423217773
1744896811241592800,3.7745927734375,-0.055316925048828125,0.055792927742004395,-0.16297957301139832
1744896811258394600,3.79139453125,-0.0022182464599609375,0.04794001579284668,-0.16186347603797913
1744896811275210500,3.80821044921875,0.020904541015625,0.05288493633270264,-0.15714600682258606
1744896811292022000,3.82502197265625,0.01926422119140625,0.06187236309051514,-0.15183517336845398
1744896811308835600,3.841835693359375,-0.005961418151855469,0.06140255928039551,-0.14299073815345764
1744896811325608400,3.8586083984375,-0.01378631591796875,0.06972193717956543,-0.16803991794586182
1744896811342454500,3.87545458984375,-0.02576446533203125,0.08477449417114258,-0.2219943106174469
1744896811359250400,3.89225048828125,-0.0304718017578125,0.12544500827789307,-0.24864253401756287
1744896811376071700,3.90907177734375,-0.048183441162109375,0.1373354196548462,-0.2404617965221405
1744896811392887800,3.9258876953125,-0.09214401245117188,0.1438523530960083,-0.20933112502098083
1744896811409688000,3.94268798828125,-0.13574886322021484,0.13305842876434326,-0.20921453833580017
1744896811426487600,3.959487548828125,-0.1417999267578125,0.13617873191833496,-0.23179373145103455
1744896811443306000,3.976305908203125,-0.14487266540527344,0.14570248126983643,-0.23865750432014465
1744896811460116200,3.9931162109375,-0.11008644104003906,0.14074289798736572,-0.22390195727348328
1744896811476929000,4.009928955078125,-0.06991386413574219,0.13392484188079834,-0.1975257396697998
1744896811493740000,4.026739990234375,-0.020208358764648438,0.1287214756011963,-0.2123621702194214
1744896811510551300,4.04355126953125,0.032395362854003906,0.10492050647735596,-0.26467835903167725
1744896811527349000,4.060348876953125,0.12366390228271484,0.10708272457122803,-0.2582150101661682
1744896811544173000,4.077173095703125,0.11077404022216797,0.06548941135406494,-0.295869916677475
1744896811560973800,4.093973876953125,0.05653190612792969,0.07577931880950928,-0.3202522397041321
1744896811577795800,4.1107958984375,-0.02605152130126953,0.09885871410369873,-0.33512163162231445
1744896811594606000,4.127606201171875,-0.07950019836425781,0.13311374187469482,-0.38167205452919006
1744896811611417300,4.144417236328125,-0.09663200378417969,0.13545405864715576,-0.4141949713230133
1744896811628228600,4.161228515625,-0.07253742218017578,0.12765419483184814,-0.41066640615463257
1744896811645036500,4.17803662109375,-0.03660297393798828,0.12249612808227539,-0.41266533732414246
1744896811661832200,4.194832275390625,-0.039084434509277344,0.14334774017333984,-0.42283785343170166
1744896811678679000,4.211678955078125,-0.055329322814941406,0.15662765502929688,-0.4282848536968231
1744896811695482400,4.228482421875,-0.12285518646240234,0.16183650493621826,-0.40382611751556396
1744896811712302000,4.245302001953125,-0.152191162109375,0.14485836029052734,-0.3696516156196594
1744896811729091600,4.262091552734375,-0.14934062957763672,0.1272667646408081,-0.3339812159538269
1744896811745939500,4.278939453125,-0.1283893585205078,0.11217093467712402,-0.2898070216178894
1744896811762752500,4.29575244140625,-0.07086944580078125,0.10787749290466309,-0.26031607389450073
1744896811779569400,4.3125693359375,-0.05858039855957031,0.10275423526763916,-0.2494126260280609
1744896811796335900,4.3293359375,-0.04438018798828125,0.10792410373687744,-0.24271084368228912
1744896811813164000,4.3461640625,-0.04355144500732422,0.09790706634521484,-0.24489837884902954
1744896811829975000,4.36297509765625,-0.07006168365478516,0.08217453956604004,-0.24539393186569214
1744896811846769400,4.379769287109375,-0.10979270935058594,0.06986308097839355,-0.21872153878211975
1744896811863580400,4.396580322265625,-0.12497138977050781,0.08423793315887451,-0.20045386254787445
1744896811880407800,4.41340771484375,-0.1188192367553711,0.11635982990264893,-0.21854867041110992
1744896811897186000,4.43018603515625,-0.08038806915283203,0.1463005542755127,-0.22556959092617035
1744896811914030600,4.447030517578125,-0.058266639709472656,0.17499756813049316,-0.2284848690032959
1744896811930841000,4.463841064453125,-0.026905059814453125,0.21084177494049072,-0.2126815915107727
1744896811947649300,4.480649169921875,-0.0018968582153320312,0.23825764656066895,-0.22811441123485565
1744896811964449500,4.497449462890625,-0.033690452575683594,0.24388444423675537,-0.22811374068260193
1744896811981258000,4.514258056640625,-0.05324745178222656,0.26969361305236816,-0.20594865083694458
1744896811998074600,4.53107470703125,-0.0643014907836914,0.25523388385772705,-0.2115609347820282
1744896812014880800,4.547880859375,-0.06697273254394531,0.2062976360321045,-0.2374868392944336
1744896812031696000,4.56469580078125,-0.040192604064941406,0.16075396537780762,-0.23960410058498383
1744896812048505300,4.58150537109375,-0.04136848449707031,0.12110650539398193,-0.20037825405597687
1744896812065303000,4.598302978515625,-0.039127349853515625,0.09851539134979248,-0.14855319261550903
1744896812082127000,4.615127197265625,-0.040635108947753906,0.07183778285980225,-0.10655506700277328
1744896812098927600,4.631927734375,-0.0288848876953125,0.0613173246383667,-0.10318101942539215
1744896812115750000,4.64875,-0.025308609008789062,0.07200777530670166,-0.13620352745056152
1744896812132560100,4.66556005859375,-0.04773521423339844,0.10409462451934814,-0.13877394795417786
1744896812149358600,4.682358642578125,-0.10932159423828125,0.1271226406097412,-0.12702304124832153
1744896812166199300,4.69919921875,-0.15485191345214844,0.14120173454284668,-0.11536823213100433
1744896812183007200,4.71600732421875,-0.15216350555419922,0.14741301536560059,-0.146874338388443
1744896812199784400,4.732784423828125,-0.13580989837646484,0.15170109272003174,-0.17817911505699158
1744896812216625700,4.749625732421875,-0.07964897155761719,0.18666958808898926,-0.2040972113609314
1744896812233444400,4.7664443359375,0.00189971923828125,0.2189188003540039,-0.2148228883743286
1744896812250251800,4.783251708984375,0.11181259155273438,0.224578857421875,-0.21262983977794647
1744896812267059500,4.8000595703125,0.17986202239990234,0.22590017318725586,-0.19029706716537476
1744896812283873500,4.81687353515625,0.22849559783935547,0.2204071283340454,-0.18729138374328613
1744896812300668200,4.833668212890625,0.22973155975341797,0.22222459316253662,-0.20758026838302612
1744896812317502500,4.85050244140625,0.15891265869140625,0.21719121932983398,-0.21486017107963562
1744896812334300000,4.8672998046875,0.047928810119628906,0.20741796493530273,-0.2067909687757492
1744896812351120600,4.88412060546875,-0.07099342346191406,0.19220983982086182,-0.2124621719121933
1744896812367926300,4.90092626953125,-0.1813201904296875,0.17132806777954102,-0.22065305709838867
1744896812384738600,4.917738525390625,-0.23517227172851562,0.13724112510681152,-0.20279604196548462
1744896812401552100,4.93455224609375,-0.2531471252441406,0.11030137538909912,-0.1695353090763092
1744896812418362000,4.951362060546875,-0.20839500427246094,0.08987700939178467,-0.16527509689331055
1744896812435170800,4.9681708984375,-0.12938594818115234,0.07988154888153076,-0.16477274894714355
1744896812451987200,4.9849873046875,-0.04494667053222656,0.09093081951141357,-0.15401117503643036
1744896812468777700,5.00177783203125,0.023072242736816406,0.1029350757598877,-0.15466618537902832
1744896812485582300,5.018582275390625,0.09255409240722656,0.11762988567352295,-0.16542300581932068
1744896812502403600,5.035403564453125,0.17829608917236328,0.13740527629852295,-0.20278185606002808
1744896812519201800,5.052201904296875,0.22040939331054688,0.14218604564666748,-0.23392917215824127
1744896812536022300,5.069022216796875,0.17610454559326172,0.13614201545715332,-0.255104124546051
1744896812552836900,5.0858369140625,0.08632755279541016,0.14621758460998535,-0.2345680594444275
1744896812569647900,5.10264794921875,-0.016948699951171875,0.15496373176574707,-0.21295572817325592
1744896812586452000,5.119451904296875,-0.1074972152709961,0.14853620529174805,-0.2124551236629486
1744896812603269600,5.13626953125,-0.15870285034179688,0.13861024379730225,-0.2023710310459137
1744896812620081000,5.153080810546875,-0.1739177703857422,0.133309006690979,-0.16920256614685059
1744896812636880100,5.169880126953125,-0.16405105590820312,0.117653489112854,-0.16748091578483582
1744896812653706500,5.18670654296875,-0.1481189727783203,0.09825026988983154,-0.20867067575454712
1744896812670528000,5.203528076171875,-0.12724971771240234,0.09797155857086182,-0.23215094208717346
1744896812687346000,5.220345947265625,-0.1170196533203125,0.0989295244216919,-0.2037808895111084
1744896812704150300,5.237150390625,-0.12484550476074219,0.08917486667633057,-0.1547262966632843
1744896812720942300,5.2539423828125,-0.07402610778808594,0.07283902168273926,-0.13311681151390076
1744896812737759700,5.270759765625,0.02001667022705078,0.072701096534729,-0.16846266388893127
1744896812754569200,5.2875693359375,0.1131143569946289,0.08918964862823486,-0.21429449319839478
1744896812771380500,5.30438037109375,0.1458263397216797,0.09865045547485352,-0.22912603616714478
1744896812788191500,5.32119140625,0.1265869140625,0.1271648406982422,-0.21528448164463043
1744896812804999000,5.3379990234375,0.061931610107421875,0.1379103660583496,-0.21006163954734802
1744896812821830000,5.354829833984375,-0.008182525634765625,0.1276010274887085,-0.24099546670913696
1744896812838642000,5.371641845703125,-0.06490707397460938,0.12367331981658936,-0.27425870299339294
1744896812855449900,5.388449951171875,-0.0895376205444336,0.13428735733032227,-0.30555447936058044
1744896812872260400,5.40526025390625,-0.10512828826904297,0.1365070343017578,-0.3086671233177185
1744896812889076200,5.422076171875,-0.11135673522949219,0.13779664039611816,-0.29283061623573303
1744896812905879800,5.4388798828125,-0.1150970458984375,0.11234307289123535,-0.2534291744232178
1744896812922696700,5.45569677734375,-0.10637950897216797,0.10099649429321289,-0.21581250429153442
1744896812939486500,5.472486572265625,-0.09884357452392578,0.09783065319061279,-0.23284128308296204
1744896812956311300,5.489311279296875,-0.1117410659790039,0.10566377639770508,-0.24298083782196045
1744896812973116200,5.5061162109375,-0.13039588928222656,0.12668418884277344,-0.21167418360710144
1744896812989924400,5.52292431640625,-0.12740039825439453,0.13731145858764648,-0.2024221122264862
1744896813006734800,5.53973486328125,-0.12259101867675781,0.13459289073944092,-0.19313524663448334
1744896813023546000,5.556546142578125,-0.09964179992675781,0.14583444595336914,-0.1802515685558319
1744896813040357400,5.573357421875,-0.05471038818359375,0.1380082368850708,-0.18087869882583618
1744896813057165000,5.5901650390625,-0.016722679138183594,0.122711181640625,-0.2092176079750061
1744896813073982500,5.606982421875,-0.0024633407592773438,0.11587512493133545,-0.22252334654331207
1744896813090790400,5.623790283203125,-0.03728485107421875,0.1104731559753418,-0.2221987545490265
1744896813107603000,5.64060302734375,-0.08249950408935547,0.1192169189453125,-0.22431908547878265
1744896813124411100,5.6574111328125,-0.10909080505371094,0.14223730564117432,-0.20918259024620056
1744896813141223400,5.674223388671875,-0.07418251037597656,0.14835429191589355,-0.22077396512031555
1744896813158047500,5.691047607421875,-0.022626876831054688,0.137079119682312,-0.21253973245620728
1744896813174856400,5.7078564453125,0.011171340942382812,0.11783862113952637,-0.18932107090950012
1744896813191678200,5.72467822265625,-0.0095367431640625,0.1374415159225464,-0.20395904779434204
1744896813208478500,5.741478515625,-0.033995628356933594,0.15860748291015625,-0.2465837299823761
1744896813225290800,5.758290771484375,-0.06914901733398438,0.17805910110473633,-0.23799076676368713
1744896813242091500,5.775091552734375,-0.11645030975341797,0.17148339748382568,-0.22622859477996826
1744896813258879500,5.79187939453125,-0.13755512237548828,0.17261338233947754,-0.21930226683616638
1744896813275721200,5.80872119140625,-0.11361980438232422,0.18880629539489746,-0.21482235193252563
1744896813292539000,5.825538818359375,-0.060463905334472656,0.19445133209228516,-0.19681595265865326
1744896813309331700,5.842331787109375,-0.004633903503417969,0.1783066987991333,-0.18142874538898468
1744896813326161700,5.85916162109375,0.0038318634033203125,0.16073381900787354,-0.18003693222999573
1744896813342983700,5.875983642578125,0.026144027709960938,0.1795973777770996,-0.18265284597873688
1744896813359781400,5.892781494140625,0.040762901306152344,0.20391356945037842,-0.19344598054885864
1744896813376588500,5.909588623046875,0.07511520385742188,0.21558916568756104,-0.21389418840408325
1744896813393403400,5.9264033203125,0.11323261260986328,0.20637047290802002,-0.19255883991718292
1744896813410216200,5.94321630859375,0.10340118408203125,0.16908669471740723,-0.14553117752075195
1744896813427027200,5.960027099609375,0.05341911315917969,0.15850341320037842,-0.1413508951663971
1744896813443819500,5.976819580078125,0.0121612548828125,0.15933716297149658,-0.16397134959697723
1744896813460630300,5.99363037109375,-0.025228500366210938,0.1548243761062622,-0.14301805198192596
1744896813477431300,6.010431396484375,-0.08026790618896484,0.13857662677764893,-0.10628917813301086
1744896813494255600,6.027255615234375,-0.09671211242675781,0.14180982112884521,-0.0971057191491127
1744896813511068000,6.04406787109375,-0.08655452728271484,0.15269207954406738,-0.13632217049598694
1744896813527876900,6.060876953125,-0.034389495849609375,0.16193139553070068,-0.17450730502605438
1744896813544689200,6.077689208984375,0.016152381896972656,0.1767280101776123,-0.2161540687084198
1744896813561499100,6.0944990234375,0.056456565856933594,0.20210325717926025,-0.2235056310892105
1744896813578311000,6.111310791015625,0.08669757843017578,0.2184896469116211,-0.25333112478256226
1744896813595107800,6.12810791015625,0.10290050506591797,0.22357141971588135,-0.26637229323387146
1744896813611935500,6.144935546875,0.0756216049194336,0.23315322399139404,-0.27353835105895996
1744896813628744000,6.161743896484375,0.00029277801513671875,0.22881484031677246,-0.281886488199234
1744896813645568300,6.178568359375,-0.0630502700805664,0.21554923057556152,-0.2832505702972412
1744896813662383900,6.1953837890625,-0.11559677124023438,0.17238152027130127,-0.22500774264335632
1744896813679174700,6.212174560546875,-0.1376953125,0.11678826808929443,-0.15963461995124817
1744896813696001800,6.229001708984375,-0.0960397720336914,0.06853687763214111,-0.1478043794631958
1744896813712795600,6.245795654296875,-0.022162437438964844,0.03452432155609131,-0.1380022168159485
1744896813729625600,6.26262548828125,0.0020494461059570312,0.015069127082824707,-0.11425444483757019
1744896813746434800,6.279434814453125,-0.030635833740234375,0.012109637260437012,-0.07098796963691711
1744896813763250400,6.29625048828125,-0.06126117706298828,0.026084542274475098,-0.05306986719369888
1744896813780041200,6.313041259765625,-0.08072185516357422,0.0301133394241333,-0.06966602057218552
1744896813796858400,6.3298583984375,-0.06687164306640625,0.04285478591918945,-0.10055434703826904
1744896813813662700,6.346662841796875,-0.03191089630126953,0.06177628040313721,-0.14186055958271027
1744896813830490600,6.36349072265625,0.021036148071289062,0.11039125919342041,-0.17765524983406067
1744896813847301400,6.38030126953125,0.05518817901611328,0.12532365322113037,-0.2158741056919098
1744896813864113000,6.39711279296875,0.0711812973022461,0.12974941730499268,-0.22820812463760376
1744896813880932900,6.413932861328125,0.02541065216064453,0.1321709156036377,-0.2422783225774765
1744896813897734400,6.430734375,-0.04306602478027344,0.13626670837402344,-0.24515679478645325
1744896813914535700,6.44753564453125,-0.09878921508789062,0.13581335544586182,-0.21560780704021454
1744896813931357400,6.464357421875,-0.0974884033203125,0.10529172420501709,-0.20207402110099792
1744896813948150500,6.481150634765625,-0.07006645202636719,0.08950626850128174,-0.18884730339050293
1744896813964961800,6.4979619140625,-0.038451194763183594,0.1022040843963623,-0.1903820037841797
1744896813981779200,6.514779296875,-0.02701854705810547,0.12839317321777344,-0.1864040195941925
1744896813998587400,6.53158740234375,-0.037629127502441406,0.14805102348327637,-0.17993399500846863
1744896814015376400,6.54837646484375,-0.06580829620361328,0.14220333099365234,-0.17923277616500854
1744896814032213000,6.565212890625,-0.1308422088623047,0.15185916423797607,-0.16712769865989685
1744896814049003800,6.582003662109375,-0.1434154510498047,0.1584237813949585,-0.13433963060379028
1744896814065831700,6.598831787109375,-0.07215213775634766,0.14828085899353027,-0.10918097198009491
1744896814082642200,6.61564208984375,0.05185890197753906,0.12291669845581055,-0.12859508395195007
1744896814099440600,6.632440673828125,0.17527008056640625,0.10701584815979004,-0.13024494051933289
1744896814116253200,6.649253173828125,0.22754955291748047,0.09104156494140625,-0.10226772725582123
1744896814133093000,6.666093017578125,0.18572044372558594,0.08488154411315918,-0.08891170471906662
1744896814149900500,6.682900634765625,0.08961677551269531,0.09135472774505615,-0.1121612936258316
1744896814166711600,6.699711669921875,-0.036719322204589844,0.07822775840759277,-0.15693917870521545
1744896814183522300,6.716522216796875,-0.1682262420654297,0.05113255977630615,-0.136286199092865
1744896814200334000,6.733333984375,-0.29485511779785156,0.031024813652038574,-0.10336433351039886
1744896814217125400,6.75012548828125,-0.3441143035888672,0.029937028884887695,-0.11868391931056976
1744896814233956000,6.7669560546875,-0.29080867767333984,0.023002266883850098,-0.1777520477771759
1744896814250766600,6.7837666015625,-0.16642475128173828,0.010646343231201172,-0.2227596640586853
1744896814267577900,6.800577880859375,-0.027919769287109375,0.004667997360229492,-0.2532404065132141
1744896814284384500,6.817384521484375,0.03994464874267578,0.02525472640991211,-0.2574648857116699
1744896814301204200,6.834204345703125,0.029328346252441406,0.08254539966583252,-0.2519749104976654
1744896814317984800,6.85098486328125,-0.027408599853515625,0.14297497272491455,-0.24909545481204987
1744896814334818800,6.86781884765625,-0.10387992858886719,0.19151103496551514,-0.2697274684906006
1744896814351637000,6.884636962890625,-0.1466846466064453,0.23650705814361572,-0.2976181209087372
1744896814368443600,6.901443603515625,-0.1496877670288086,0.25620388984680176,-0.33798715472221375
1744896814385251000,6.9182509765625,-0.11925601959228516,0.26943469047546387,-0.3255258798599243
1744896814402070300,6.9350703125,-0.029295921325683594,0.26362884044647217,-0.29921942949295044
1744896814418861300,6.951861328125,0.0714254379272461,0.215964674949646,-0.2642025947570801
1744896814435669000,6.9686689453125,0.15364551544189453,0.15751147270202637,-0.25083306431770325
1744896814452487400,6.9854873046875,0.16597938537597656,0.11606168746948242,-0.2483764886856079
1744896814469285600,7.00228564453125,0.0745229721069336,0.09523308277130127,-0.21767644584178925
1744896814486110500,7.0191103515625,-0.05880260467529297,0.0772780179977417,-0.14842908084392548
1744896814502915800,7.035915771484375,-0.17572879791259766,0.07507669925689697,-0.09569992125034332
1744896814519730000,7.05272998046875,-0.2290477752685547,0.07226455211639404,-0.08947111666202545
1744896814536541000,7.069541015625,-0.2078571319580078,0.08003377914428711,-0.09294231235980988
1744896814553351700,7.0863515625,-0.0910940170288086,0.0786597728729248,-0.06875260174274445
1744896814570162200,7.103162109375,0.05170917510986328,0.0576704740524292,-0.07600614428520203
1744896814586975000,7.11997509765625,0.1573324203491211,0.05146586894989014,-0.10641059279441833
1744896814603785200,7.13678515625,0.18006515502929688,0.06488919258117676,-0.09378089010715485
1744896814620595200,7.15359521484375,0.12764263153076172,0.06612086296081543,-0.06979899108409882
1744896814637421300,7.17042138671875,-0.05733489990234375,0.0646817684173584,-0.07312634587287903
1744896814654236000,7.18723583984375,-0.26099300384521484,0.09457385540008545,-0.11341829597949982
1744896814671043300,7.204043212890625,-0.40929317474365234,0.1394273042678833,-0.12530896067619324
1744896814687853800,7.220853759765625,-0.4337921142578125,0.15026772022247314,-0.12758316099643707
1744896814704665300,7.237665283203125,-0.3487052917480469,0.12223470211029053,-0.1600416749715805
1744896814721476000,7.25447607421875,-0.2163372039794922,0.08133828639984131,-0.20351791381835938
1744896814738283800,7.27128369140625,-0.04789257049560547,0.06151247024536133,-0.20379911363124847
1744896814755099100,7.28809912109375,0.07242202758789062,0.020657896995544434,-0.19073201715946198
1744896814771913200,7.304913330078125,0.07423591613769531,-0.0025110244750976562,-0.18651597201824188
1744896814788720600,7.321720703125,-0.0145416259765625,-0.0002783536911010742,-0.1850331425666809
1744896814805532000,7.338531982421875,-0.18835067749023438,0.021059036254882812,-0.17305538058280945
1744896814822342400,7.35534228515625,-0.39344120025634766,0.05213022232055664,-0.16669994592666626
1744896814839133200,7.37213330078125,-0.534571647644043,0.07351946830749512,-0.1699269860982895
1744896814855968800,7.38896875,-0.5741443634033203,0.07062184810638428,-0.18574926257133484
1744896814872776000,7.40577587890625,-0.5269098281860352,0.03530991077423096,-0.1921325922012329
1744896814889570000,7.422570068359375,-0.4360771179199219,-0.004366517066955566,-0.2041769027709961
1744896814906399000,7.43939892578125,-0.3173093795776367,-0.022788047790527344,-0.22564610838890076
1744896814923190500,7.4561904296875,-0.22326183319091797,-0.03291809558868408,-0.2363368719816208
1744896814940006400,7.47300634765625,-0.21494770050048828,-0.0389021635055542,-0.19771334528923035
1744896814956817000,7.48981689453125,-0.2798004150390625,-0.017307281494140625,-0.14122404158115387
1744896814973628200,7.506628173828125,-0.3652305603027344,0.025996804237365723,-0.13871979713439941
1744896814990436000,7.52343603515625,-0.4017629623413086,0.07594442367553711,-0.19708995521068573
1744896815007250400,7.54025048828125,-0.3721294403076172,0.11203968524932861,-0.22797049582004547
1744896815024061200,7.557061279296875,-0.3003978729248047,0.11151611804962158,-0.20549489557743073
1744896815040865500,7.573865478515625,-0.21181964874267578,0.09028279781341553,-0.1537032276391983
1744896815057683500,7.590683349609375,-0.1623821258544922,0.04793858528137207,-0.09858302772045135
1744896815074491600,7.60749169921875,-0.2290668487548828,0.005147337913513184,-0.06990431249141693
1744896815091308300,7.624308349609375,-0.3790168762207031,-0.017670273780822754,-0.05129501223564148
1744896815108116700,7.64111669921875,-0.5436620712280273,-0.02098703384399414,-0.04599912464618683
1744896815124946200,7.6579462890625,-0.6555395126342773,-0.037398457527160645,-0.022235475480556488
1744896815141741300,7.6747412109375,-0.6984195709228516,-0.0727236270904541,-0.013596266508102417
1744896815158563600,7.6915634765625,-0.6116485595703125,-0.07271075248718262,-0.039450712502002716
1744896815175370800,7.708370849609375,-0.4805126190185547,-0.04018664360046387,-0.07432292401790619
1744896815192189700,7.725189697265625,-0.3516273498535156,-0.028437137603759766,-0.08252712339162827
1744896815208981000,7.74198095703125,-0.2916116714477539,-0.01717996597290039,-0.07620030641555786
1744896815225807000,7.75880712890625,-0.3187103271484375,-0.002366304397583008,-0.10080841183662415
1744896815242614300,7.7756142578125,-0.4223804473876953,0.02885901927947998,-0.1363086700439453
1744896815259413500,7.79241357421875,-0.5124597549438477,0.04790031909942627,-0.17255012691020966
1744896815276220700,7.809220703125,-0.5839166641235352,0.05144608020782471,-0.18215814232826233
1744896815293060900,7.826060791015625,-0.6275911331176758,0.05744636058807373,-0.1827419102191925
1744896815309854000,7.84285400390625,-0.6106958389282227,0.07492506504058838,-0.16978393495082855
1744896815326674400,7.85967431640625,-0.5727224349975586,0.07436478137969971,-0.13999229669570923
1744896815343467300,7.87646728515625,-0.5179977416992188,0.0674668550491333,-0.15797613561153412
1744896815360296000,7.8932958984375,-0.5341062545776367,0.06212019920349121,-0.21157269179821014
1744896815377094000,7.910093994140625,-0.6012601852416992,0.09956860542297363,-0.21677552163600922
1744896815393916200,7.926916259765625,-0.6493730545043945,0.10617673397064209,-0.19472044706344604
1744896815410709200,7.943709228515625,-0.6466970443725586,0.07440352439880371,-0.21841496229171753
1744896815427529500,7.960529541015625,-0.6108074188232422,0.0073539018630981445,-0.23333148658275604
1744896815444348700,7.9773486328125,-0.5285224914550781,-0.021999001502990723,-0.18200165033340454
1744896815461148700,7.994148681640625,-0.4631366729736328,-0.05426442623138428,-0.10143887996673584
1744896815477960000,8.0109599609375,-0.44421958923339844,-0.07517099380493164,-0.05027024447917938
1744896815494765800,8.027765869140625,-0.43592071533203125,-0.06998872756958008,-0.07773299515247345
1744896815511583000,8.0445830078125,-0.4622020721435547,-0.039081454277038574,-0.13593874871730804
1744896815528396000,8.06139599609375,-0.5131855010986328,0.007145524024963379,-0.12846466898918152
1744896815545204200,8.078204345703124,-0.5875473022460938,0.03820443153381348,-0.10624942183494568
1744896815562014500,8.095014404296874,-0.6066188812255859,0.07706201076507568,-0.09697069227695465
1744896815578834700,8.111834716796874,-0.5647420883178711,0.08935987949371338,-0.13247807323932648
1744896815595637000,8.128636962890624,-0.4778566360473633,0.08621561527252197,-0.19809648394584656
1744896815612465200,8.145465087890624,-0.39522266387939453,0.06563818454742432,-0.24906422197818756
1744896815629257700,8.1622578125,-0.34884166717529297,0.059351444244384766,-0.252522349357605
1744896815646077200,8.1790771484375,-0.35816001892089844,0.034358859062194824,-0.19788233935832977
1744896815662894800,8.195894775390625,-0.4063577651977539,0.0004413127899169922,-0.14451919496059418
1744896815679689700,8.212689697265626,-0.4864950180053711,-0.021628499031066895,-0.14102861285209656
1744896815696517000,8.22951708984375,-0.5930681228637695,-0.012479782104492188,-0.17025962471961975
1744896815713325800,8.246325927734375,-0.6862335205078125,0.021892786026000977,-0.16779357194900513
1744896815730141200,8.26314111328125,-0.7466096878051758,0.028135299682617188,-0.12006533145904541
1744896815746950400,8.279950439453126,-0.7435197830200195,0.018934011459350586,-0.08131121098995209
1744896815763760600,8.2967607421875,-0.6566410064697266,-0.002132892608642578,-0.08114983141422272
1744896815780557600,8.3135576171875,-0.5046768188476562,-0.027699708938598633,-0.11458350718021393
1744896815797377000,8.330376953125,-0.3904914855957031,-0.05840253829956055,-0.11036667227745056
1744896815814196700,8.34719677734375,-0.3339099884033203,-0.061858415603637695,-0.06616540253162384
1744896815831014000,8.364013916015624,-0.3551511764526367,-0.0553508996963501,-0.03792871534824371
1744896815847820300,8.3808203125,-0.4414529800415039,-0.03418397903442383,-0.03456668555736542
1744896815864623600,8.39762353515625,-0.5163631439208984,0.010374307632446289,-0.06387597322463989
1744896815881452300,8.414452392578125,-0.5687494277954102,0.05186200141906738,-0.08358193933963776
1744896815898232300,8.431232421875,-0.5863513946533203,0.05006122589111328,-0.0465320348739624
1744896815915035400,8.448035400390625,-0.568939208984375,0.029660582542419434,-0.05250227451324463
1744896815931861000,8.464861083984376,-0.5034151077270508,0.017860054969787598,-0.1037832498550415
1744896815948669400,8.48166943359375,-0.4470806121826172,0.025463104248046875,-0.11333811283111572
1744896815965480000,8.49847998046875,-0.41929149627685547,0.009298443794250488,-0.09326061606407166
1744896815982291200,8.515291259765625,-0.41860294342041016,0.0008805990219116211,-0.05515336990356445
1744896815999089700,8.532089599609375,-0.47487926483154297,-0.02560102939605713,-0.09983021020889282
1744896816015913700,8.548913818359376,-0.5462322235107422,-0.0035723447799682617,-0.12565255165100098
1744896816032724200,8.56572412109375,-0.6376180648803711,0.0098876953125,-0.14497795701026917
1744896816049535500,8.582535400390626,-0.6633491516113281,0.030286788940429688,-0.10277235507965088
1744896816066346500,8.599346435546876,-0.6186084747314453,0.014313817024230957,-0.08937907218933105
1744896816083157800,8.61615771484375,-0.5124168395996094,-0.004629850387573242,-0.1217702329158783
1744896816099985700,8.632985595703126,-0.4112672805786133,-0.005014181137084961,-0.1349787712097168
1744896816116777000,8.64977685546875,-0.34677886962890625,0.007453441619873047,-0.1171126663684845
1744896816133605400,8.66660546875,-0.33892822265625,0.031237244606018066,-0.08709436655044556
1744896816150416000,8.683415771484375,-0.38753700256347656,0.029267072677612305,-0.09244042634963989
1744896816167216600,8.700216552734375,-0.47497081756591797,0.044019103050231934,-0.1088486909866333
1744896816184037400,8.717037353515625,-0.5671653747558594,0.04460024833679199,-0.10340055823326111
1744896816200848600,8.7338486328125,-0.6188392639160156,0.04732966423034668,-0.08952963352203369
1744896816217655300,8.7506552734375,-0.6075162887573242,0.024606943130493164,-0.09649431705474854
1744896816234471000,8.767470947265625,-0.554473876953125,-0.00993800163269043,-0.10495907068252563
1744896816251282000,8.784281982421875,-0.5222301483154297,-0.024824142456054688,-0.0928056538105011
1744896816268077300,8.801077392578126,-0.5073213577270508,-0.03274857997894287,-0.10977634787559509
1744896816284899600,8.817899658203125,-0.4945840835571289,-0.030201196670532227,-0.12499776482582092
1744896816301718800,8.83471875,-0.5342044830322266,-0.043714284896850586,-0.125288188457489
1744896816318545200,8.851545166015624,-0.6035356521606445,-0.04407382011413574,-0.0955531895160675
1744896816335332900,8.868332763671875,-0.6422214508056641,-0.01161336898803711,-0.08468911051750183
1744896816352152800,8.88515283203125,-0.6041183471679688,0.037523508071899414,-0.1322001814842224
1744896816368942300,8.9019423828125,-0.5106058120727539,0.06970643997192383,-0.1720154583454132
1744896816385753000,8.918753173828126,-0.4498605728149414,0.06252694129943848,-0.18477699160575867
1744896816402567400,8.9355673828125,-0.41614627838134766,0.06958293914794922,-0.18436536192893982
1744896816419366000,8.952365966796876,-0.4143495559692383,0.07116127014160156,-0.18520048260688782
1744896816436189400,8.969189453125,-0.4815073013305664,0.050726890563964844,-0.18583613634109497
1744896816453000700,8.986000732421875,-0.5549430847167969,0.024413585662841797,-0.14809316396713257
1744896816469812000,9.00281201171875,-0.5921916961669922,-0.021541237831115723,-0.09336942434310913
1744896816486623000,9.019623046875,-0.5943021774291992,-0.06335389614105225,-0.05883157253265381
1744896816503433500,9.03643359375,-0.5421543121337891,-0.09124124050140381,-0.05767795443534851
1744896816520245000,9.053244873046875,-0.4898710250854492,-0.10058331489562988,-0.07499328255653381
1744896816537055700,9.0700556640625,-0.45682239532470703,-0.08985304832458496,-0.10099217295646667
1744896816553867500,9.086867431640625,-0.4291658401489258,-0.06962788105010986,-0.12660124897956848
1744896816570677800,9.103677734375,-0.42332935333251953,-0.029486656188964844,-0.16570812463760376
1744896816587492600,9.12049267578125,-0.43495845794677734,0.006593108177185059,-0.21708467602729797
1744896816604313600,9.137313720703125,-0.4348897933959961,0.05202209949493408,-0.2636118233203888
1744896816621131000,9.154131103515626,-0.41793060302734375,0.09241616725921631,-0.3074256181716919
1744896816637926000,9.17092578125,-0.4117460250854492,0.09490346908569336,-0.3012167513370514
1744896816654748000,9.187747802734375,-0.4118804931640625,0.08190727233886719,-0.2666524350643158
1744896816671561200,9.204561279296875,-0.4133768081665039,0.06897294521331787,-0.21467354893684387
1744896816688367000,9.2213671875,-0.41149234771728516,0.05725228786468506,-0.1990680694580078
1744896816705161500,9.238161376953125,-0.39357757568359375,0.034940361976623535,-0.20562201738357544
1744896816721995300,9.254995361328126,-0.3700284957885742,0.02260434627532959,-0.20580404996871948
1744896816738800000,9.271800048828124,-0.3646984100341797,0.023229241371154785,-0.1987099051475525
1744896816755616800,9.28861669921875,-0.3737812042236328,0.015468716621398926,-0.18331214785575867
1744896816772424000,9.305423828125,-0.34769248962402344,0.011705517768859863,-0.10969331860542297
1744896816789220600,9.322220703125,-0.30137157440185547,-0.025085806846618652,-0.07260727882385254
1744896816806046500,9.33904638671875,-0.2710447311401367,-0.033811211585998535,-0.06757840514183044
1744896816822857500,9.355857421875,-0.2564411163330078,-0.008442521095275879,-0.08454093337059021
1744896816839668500,9.37266845703125,-0.26643943786621094,0.02586495876312256,-0.06476613879203796
1744896816856479700,9.389479736328125,-0.31815147399902344,0.02727329730987549,-0.03490328788757324
1744896816873273300,9.4062734375,-0.3705606460571289,0.018279671669006348,-0.04656708240509033
1744896816890088400,9.42308837890625,-0.40367603302001953,0.04677462577819824,-0.04056712985038757
1744896816906899000,9.43989892578125,-0.3778533935546875,0.09066522121429443,-0.03266406059265137
1744896816923710000,9.4567099609375,-0.2849407196044922,0.11104047298431396,-0.029789835214614868
1744896816940521200,9.473521240234374,-0.18679523468017578,0.12207412719726562,-0.06110715866088867
1744896816957333000,9.4903330078125,-0.10147762298583984,0.1498122215270996,-0.10105237364768982
1744896816974139400,9.507139404296876,-0.07093620300292969,0.17579448223114014,-0.10897812247276306
1744896816990957300,9.523957275390625,-0.061989784240722656,0.16721129417419434,-0.13802289962768555
1744896817007765200,9.54076513671875,-0.08203792572021484,0.13597571849822998,-0.15927433967590332
1744896817024573700,9.55757373046875,-0.13458538055419922,0.10164988040924072,-0.14569762349128723
1744896817041390300,9.574390380859375,-0.21993637084960938,0.07219851016998291,-0.14527088403701782
1744896817058198500,9.591198486328125,-0.3357229232788086,0.059348225593566895,-0.11169660091400146
1744896817075004200,9.608004150390625,-0.41963768005371094,0.04617130756378174,-0.07339081168174744
1744896817091843800,9.62484375,-0.4682331085205078,0.03974044322967529,-0.026590704917907715
1744896817108645400,9.641645263671874,-0.4542884826660156,0.028974175453186035,-0.001536935567855835
1744896817125453600,9.65845361328125,-0.35507869720458984,0.03155922889709473,0.02320191264152527
1744896817142263800,9.675263916015625,-0.22685527801513672,0.03611397743225098,0.04391023516654968
1744896817159078000,9.692077880859374,-0.08189868927001953,0.04727375507354736,0.03981150686740875
1744896817175883000,9.708883056640625,0.03147697448730469,0.0783153772354126,-0.012090593576431274
1744896817192707000,9.72570703125,0.12087059020996094,0.10843777656555176,-0.04972892999649048
1744896817209487400,9.7424873046875,0.18977069854736328,0.13976514339447021,-0.05903404951095581
1744896817226310100,9.75931005859375,0.23908233642578125,0.14760279655456543,-0.08844846487045288
1744896817243116800,9.77611669921875,0.2447185516357422,0.16611218452453613,-0.11762204766273499
1744896817259930400,9.792930419921875,0.20296001434326172,0.18325161933898926,-0.14490440487861633
1744896817276742000,9.809741943359375,0.1013803482055664,0.19363844394683838,-0.16737762093544006
1744896817293543200,9.826543212890625,0.02363872528076172,0.19987702369689941,-0.1978285014629364
1744896817310362400,9.8433623046875,-0.03918933868408203,0.2086549997329712,-0.18060484528541565
1744896817327174400,9.86017431640625,-0.08645439147949219,0.18272149562835693,-0.17380064725875854
1744896817343988700,9.87698876953125,-0.10833454132080078,0.15274226665496826,-0.1624765396118164
1744896817360798500,9.893798583984376,-0.1256093978881836,0.12839818000793457,-0.16422539949417114
1744896817377608000,9.91060791015625,-0.11825942993164062,0.1003422737121582,-0.1796850562095642
1744896817394406400,9.927406494140625,-0.07097053527832031,0.058806777000427246,-0.17053624987602234
1744896817411230500,9.94423046875,-0.0070476531982421875,0.009770512580871582,-0.16014117002487183
1744896817428036600,9.96103662109375,0.047359466552734375,-0.017495274543762207,-0.1563640832901001
1744896817444841000,9.977841064453125,0.056674957275390625,-0.030747652053833008,-0.16943395137786865
1744896817461647400,9.9946474609375,0.0851736068725586,0.0014865398406982422,-0.16558343172073364
1744896817478474800,10.011474853515624,0.11756420135498047,0.03973114490509033,-0.17683228850364685
1744896817495286000,10.0282861328125,0.1091909408569336,0.053633689880371094,-0.1943427324295044
1744896817512096800,10.0450966796875,0.06224822998046875,0.09822368621826172,-0.1860453188419342
1744896817528895000,10.06189501953125,-0.0060291290283203125,0.1552044153213501,-0.1620866358280182
1744896817545718800,10.07871875,-0.05510520935058594,0.19060003757476807,-0.13561150431632996
1744896817562530300,10.0955302734375,-0.09741020202636719,0.17064225673675537,-0.16421669721603394
1744896817579341600,10.112341552734375,-0.09851837158203125,0.136818528175354,-0.19233813881874084
1744896817596162000,10.129162109375,-0.08580875396728516,0.10155344009399414,-0.16891247034072876
1744896817612977000,10.145976806640626,-0.0462646484375,0.05023014545440674,-0.12638595700263977
1744896817629785000,10.16278515625,0.007420539855957031,-0.0016095638275146484,-0.12166202068328857
1744896817646602000,10.17960205078125,0.0502471923828125,-0.03292989730834961,-0.11524274945259094
1744896817663382000,10.196382080078125,0.07878875732421875,-0.04682755470275879,-0.10938847064971924
1744896817680221400,10.213221435546876,0.022772789001464844,-0.046858787536621094,-0.10637010633945465
1744896817697016300,10.230016357421874,-0.041210174560546875,-0.02456653118133545,-0.1124296635389328
1744896817713843200,10.24684326171875,-0.10161209106445312,0.0024203062057495117,-0.11112357676029205
1744896817730654200,10.263654296875,-0.1602649688720703,0.03460657596588135,-0.10437971353530884
1744896817747465200,10.28046533203125,-0.1687479019165039,0.06392550468444824,-0.1393306851387024
1744896817764276500,10.2972763671875,-0.10460090637207031,0.09531402587890625,-0.15686306357383728
1744896817781087000,10.3140869140625,-0.0250091552734375,0.11795377731323242,-0.17272666096687317
1744896817797874200,10.330874267578125,0.021373748779296875,0.0988011360168457,-0.1600264608860016
1744896817814700800,10.34770068359375,0.04074859619140625,0.08328163623809814,-0.1473572850227356
1744896817831512800,10.364512939453125,0.026153564453125,0.05939602851867676,-0.1383703351020813
1744896817848314000,10.381314208984374,-0.04245185852050781,0.04186737537384033,-0.12530693411827087
1744896817865126000,10.3981259765625,-0.10602474212646484,0.03692150115966797,-0.09486523270606995
1744896817881942800,10.41494287109375,-0.1800527572631836,0.030464529991149902,-0.04516628384590149
1744896817898743600,10.43174365234375,-0.2080841064453125,0.02750992774963379,-0.02980184555053711
1744896817915558400,10.448558349609375,-0.15145587921142578,0.05193459987640381,-0.03569263219833374
1744896817932375300,10.465375244140626,-0.06540107727050781,0.059500813484191895,-0.033415138721466064
1744896817949184800,10.482184814453126,0.05068016052246094,0.05351591110229492,-0.01956164836883545
1744896817965992000,10.498991943359375,0.12975788116455078,0.060927391052246094,-0.011183619499206543
1744896817982806000,10.515805908203125,0.15347003936767578,0.06699120998382568,-0.022474735975265503
1744896817999617300,10.5326171875,0.12959766387939453,0.0777052640914917,-0.05773404240608215
1744896818016425200,10.54942529296875,0.0787506103515625,0.0839003324508667,-0.06685197353363037
1744896818033229300,10.566229248046875,-0.007225990295410156,0.06929540634155273,-0.030297785997390747
1744896818050050300,10.58305029296875,-0.07672595977783203,0.0662992000579834,0.004693835973739624
1744896818066874400,10.599874267578125,-0.12498664855957031,0.0689842700958252,0.005995810031890869
1744896818083690200,10.616690185546876,-0.13925457000732422,0.062244415283203125,-0.03198850154876709
1744896818100522000,10.63352197265625,-0.13158798217773438,0.05933523178100586,-0.05846962332725525
1744896818117308200,10.65030810546875,-0.09327220916748047,0.034954190254211426,-0.053940653800964355
1744896818134119400,10.667119384765625,-0.05107688903808594,0.02899610996246338,-0.06368449330329895
1744896818150930400,10.683930419921875,-0.008553504943847656,0.026148438453674316,-0.09094962477684021
1744896818167741700,10.70074169921875,0.030427932739257812,0.05051469802856445,-0.11423757672309875
1744896818184553000,10.717552978515625,0.07053089141845703,0.05375778675079346,-0.1312512755393982
1744896818201363500,10.734363525390625,0.08625030517578125,0.06652307510375977,-0.15767428278923035
1744896818218174500,10.751174560546875,0.09618282318115234,0.10669362545013428,-0.17225953936576843
1744896818234982000,10.76798193359375,0.09258174896240234,0.15189337730407715,-0.15073132514953613
1744896818251807500,10.784807373046876,0.09104061126708984,0.15166449546813965,-0.11530810594558716
1744896818268601000,10.80160107421875,0.04149055480957031,0.1174699068069458,-0.1062445342540741
1744896818285421000,10.818421142578124,-0.01935863494873047,0.0996100902557373,-0.11888992786407471
1744896818302228000,10.83522802734375,-0.06196117401123047,0.09308481216430664,-0.1262158751487732
1744896818319033600,10.85203369140625,-0.09898567199707031,0.06406247615814209,-0.11204132437705994
1744896818335835000,10.8688349609375,-0.08816146850585938,0.03204476833343506,-0.10032534599304199
1744896818352649500,10.8856494140625,-0.036533355712890625,0.001231074333190918,-0.11267456412315369
1744896818369460700,10.902460693359375,0.0036773681640625,-0.012186646461486816,-0.12069308757781982
1744896818386271200,10.919271240234375,-0.009889602661132812,-0.01658952236175537,-0.10512635111808777
1744896818403082500,10.93608251953125,-0.03467845916748047,-0.009355783462524414,-0.08894798159599304
1744896818419893800,10.952893798828125,-0.06197547912597656,0.017086029052734375,-0.10075297951698303
1744896818436722000,10.969721923828125,-0.08219718933105469,0.03966867923736572,-0.12302124500274658
1744896818453526000,10.986526123046875,-0.04627037048339844,0.08351278305053711,-0.1483933925628662
1744896818470327000,11.0033271484375,0.02509593963623047,0.10377895832061768,-0.15782448649406433
1744896818487137800,11.0201376953125,0.11153316497802734,0.10678219795227051,-0.1535855531692505
1744896818503949000,11.036948974609375,0.14899730682373047,0.09808027744293213,-0.14922639727592468
1744896818520750300,11.053750244140625,0.10952949523925781,0.10325241088867188,-0.13730549812316895
1744896818537571000,11.070571044921875,0.030725479125976562,0.09288406372070312,-0.13379913568496704
1744896818554381800,11.0873818359375,-0.09314823150634766,0.0818101167678833,-0.11324331164360046
1744896818571208000,11.1042080078125,-0.19577598571777344,0.07002460956573486,-0.08939424157142639
1744896818588017700,11.121017578125,-0.24707412719726562,0.06735646724700928,-0.07574740052223206
1744896818604829000,11.137828857421875,-0.2351083755493164,0.05627763271331787,-0.0496981143951416
1744896818621607000,11.15460693359375,-0.16171836853027344,0.029915213584899902,-0.0386638343334198
1744896818638454000,11.1714541015625,-0.06024456024169922,0.012297511100769043,-0.055988609790802
1744896818655254800,11.1882548828125,0.07196807861328125,-0.0005784034729003906,-0.10017487406730652
1744896818672081200,11.2050810546875,0.16646480560302734,0.0024079084396362305,-0.11259689927101135
1744896818688878600,11.221878662109376,0.20077037811279297,0.02241957187652588,-0.09336152672767639
1744896818705695200,11.2386953125,0.17716217041015625,0.055335402488708496,-0.104249507188797
1744896818722494700,11.25549462890625,0.10878562927246094,0.08618795871734619,-0.10983338952064514
1744896818739300900,11.27230078125,0.04382896423339844,0.10581707954406738,-0.10714259743690491
1744896818756124700,11.289124755859374,-0.014649391174316406,0.09379112720489502,-0.10945692658424377
1744896818772942800,11.30594287109375,-0.07892608642578125,0.06739544868469238,-0.11972677707672119
1744896818789750000,11.32275,-0.1502246856689453,0.05810689926147461,-0.09590107202529907
1744896818806555000,11.339554931640626,-0.23673534393310547,0.055503249168395996,-0.07013025879859924
1744896818823361500,11.356361572265625,-0.2706890106201172,0.044387221336364746,-0.06734359264373779
1744896818840170200,11.373170166015624,-0.22277450561523438,0.01919853687286377,-0.07762831449508667
1744896818856977200,11.38997705078125,-0.13236522674560547,0.009937286376953125,-0.09896376729011536
1744896818873795000,11.406795166015625,-0.11502838134765625,0.013785481452941895,-0.14361515641212463
1744896818890603000,11.42360302734375,-0.012982368469238281,0.035291314125061035,-0.07319343090057373
1744896818907414000,11.4404140625,0.05591011047363281,0.035883188247680664,-0.06621676683425903
1744896818924242200,11.4572421875,0.1185903549194336,0.022124171257019043,-0.09522339701652527
1744896818941049900,11.4740498046875,0.1297903060913086,0.05796504020690918,-0.07965254783630371
1744896818957831700,11.490831787109375,0.11274242401123047,0.09179723262786865,-0.06475704908370972
1744896818974657500,11.507657470703125,0.058380126953125,0.11328697204589844,-0.06633034348487854
1744896818991470000,11.524469970703125,0.0118408203125,0.12057769298553467,-0.07215556502342224
1744896819008279600,11.541279541015625,-0.04932975769042969,0.12537825107574463,-0.08484658598899841
1744896819025088800,11.5580888671875,-0.08930778503417969,0.12331950664520264,-0.05133938789367676
1744896819041905200,11.5749052734375,-0.08124828338623047,0.10051429271697998,-0.056716710329055786
1744896819058713000,11.591713134765625,-0.029616355895996094,0.07246744632720947,-0.06511500477790833
1744896819075537700,11.60853759765625,0.00452423095703125,0.044124484062194824,-0.042110711336135864
1744896819092353300,11.625353271484375,0.0021762847900390625,0.024291038513183594,-0.03162190318107605
1744896819109144300,11.642144287109375,-0.008014678955078125,0.02356421947479248,-0.08807098865509033
1744896819125971200,11.65897119140625,0.005742073059082031,0.023540616035461426,-0.09514686465263367
1744896819142782700,11.67578271484375,-0.007193565368652344,-0.005312919616699219,-0.0531466007232666
1744896819159576600,11.69257666015625,-0.08428382873535156,-0.0432971715927124,0.003850609064102173
1744896819176405000,11.709405029296875,-0.052863121032714844,-0.033567190170288086,0.02237716317176819
1744896819193211100,11.726211181640625,0.018503189086914062,-0.018627524375915527,-0.0727323591709137
1744896819210030600,11.743030517578125,0.011536598205566406,0.013794660568237305,-0.12385106086730957
1744896819226833700,11.759833740234376,0.010149955749511719,0.09548735618591309,-0.14670026302337646
1744896819243652000,11.776652099609375,0.013326644897460938,0.1383812427520752,-0.16349533200263977
1744896819260443400,11.793443359375,0.026976585388183594,0.11075890064239502,-0.15984779596328735
1744896819277271000,11.81027099609375,-0.008207321166992188,0.10623109340667725,-0.14118170738220215
1744896819294085400,11.82708544921875,-0.0261077880859375,0.1765601634979248,-0.13064488768577576
1744896819310872000,11.8438720703125,-0.07972335815429688,0.16579413414001465,-0.07738450169563293
1744896819327690000,11.86068994140625,-0.07522773742675781,0.0831446647644043,-0.1373947262763977
1744896819344501000,11.8775009765625,-0.06879806518554688,0.09329307079315186,-0.22932708263397217
1744896819361306400,11.894306396484374,-0.12924671173095703,0.05655503273010254,-0.19641181826591492
1744896819378120400,11.911120361328125,-0.16074466705322266,0.04643666744232178,-0.14091384410858154
1744896819394934300,11.927934326171876,-0.19417190551757812,0.014642953872680664,-0.05877155065536499
1744896819411765500,11.944765625,-0.1833486557006836,0.003678560256958008,-0.051846712827682495
1744896819428566300,11.961566162109374,-0.17609405517578125,0.023256778717041016,-0.07957956194877625
1744896819445368300,11.978368408203124,-0.1344127655029297,0.04502582550048828,-0.10492360591888428
1744896819462178300,11.99517822265625,-0.04391670227050781,0.07086622714996338,-0.13708654046058655
1744896819478979000,12.01197900390625,0.06085205078125,0.11551105976104736,-0.1520179808139801
1744896819495800600,12.028800537109374,0.12854576110839844,0.12632322311401367,-0.14109018445014954
1744896819512612000,12.045612060546874,0.1172494888305664,0.12943100929260254,-0.1040736734867096
1744896819529419300,12.062419189453125,0.07659339904785156,0.15442240238189697,-0.07854261994361877
1744896819546237000,12.07923681640625,0.020647048950195312,0.18036091327667236,-0.019884616136550903
1744896819563044900,12.096044921875,-0.02578449249267578,0.16978371143341064,0.012759089469909668
1744896819579859500,12.112859375,-0.10090923309326172,0.13668453693389893,0.023496806621551514
1744896819596662800,12.129662841796875,-0.22247600555419922,0.1170344352722168,0.055249303579330444
1744896819613495600,12.14649560546875,-0.27809619903564453,0.09353125095367432,0.1120569109916687
1744896819630304500,12.163304443359374,-0.3034029006958008,0.03940880298614502,0.1682220846414566
1744896819647112400,12.180112548828125,-0.32556724548339844,-0.010589838027954102,0.196700319647789
1744896819663907800,12.196907958984376,-0.30594539642333984,0.0035843849182128906,0.2381567656993866
1744896819680735500,12.213735595703126,-0.20615863800048828,0.06343591213226318,0.29246896505355835
1744896819697545700,12.230545654296876,-0.16533470153808594,0.052487850189208984,0.26404622197151184
1744896819714358000,12.24735791015625,0.0013360977172851562,0.10706734657287598,0.3138679265975952
1744896819731167000,12.2641669921875,0.19074058532714844,0.1337047815322876,0.28998738527297974
1744896819747980000,12.28097998046875,0.3398246765136719,0.10604989528656006,0.2507554590702057
1744896819764786700,12.29778662109375,0.3560199737548828,0.07767856121063232,0.22249102592468262
1744896819781606400,12.3146064453125,0.3029317855834961,0.03377723693847656,0.19586201012134552
1744896819798382800,12.3313828125,0.21599292755126953,-0.01562035083770752,0.18183007836341858
1744896819815212300,12.34821240234375,0.15906047821044922,-0.0846090316772461,0.12653954327106476
1744896819832009200,12.36500927734375,0.07692432403564453,-0.16864407062530518,0.0034959912300109863
1744896819848820200,12.3818203125,0.028619766235351562,-0.19387662410736084,-0.08847813308238983
1744896819865643500,12.3986435546875,-0.034999847412109375,-0.19533896446228027,-0.18885885179042816
1744896819882454800,12.415454833984375,-0.1033639907836914,-0.1822209358215332,-0.26623016595840454
1744896819899268600,12.4322685546875,-0.1747446060180664,-0.12311697006225586,-0.30741366744041443
1744896819916090600,12.449090576171875,-0.19986534118652344,-0.016006946563720703,-0.33107227087020874
1744896819932872000,12.465871826171876,-0.15831947326660156,0.08740317821502686,-0.4272043704986572
1744896819949699000,12.482698974609375,-0.046242713928222656,0.18014609813690186,-0.5301271677017212
1744896819966510000,12.499510009765626,0.06878185272216797,0.24232327938079834,-0.5865527987480164
1744896819983321000,12.516321044921876,0.15167903900146484,0.29137134552001953,-0.5775772929191589
1744896820000118800,12.533118896484375,0.22486019134521484,0.3017106056213379,-0.5184288024902344
1744896820016942800,12.54994287109375,0.23507976531982422,0.2577247619628906,-0.44232550263404846
1744896820033751000,12.5667509765625,0.1682586669921875,0.19388139247894287,-0.37633535265922546
1744896820050565400,12.5835654296875,0.056677818298339844,0.1371384859085083,-0.3019070327281952
1744896820067375900,12.6003759765625,-0.08640289306640625,0.07278645038604736,-0.24366062879562378
1744896820084204300,12.617204345703126,-0.19622421264648438,0.005392789840698242,-0.177804097533226
1744896820100995300,12.633995361328125,-0.2554035186767578,-0.049343109130859375,-0.12505033612251282
1744896820117823000,12.650822998046875,-0.24704265594482422,-0.09297835826873779,-0.10066226124763489
1744896820134634500,12.667634521484375,-0.18399810791015625,-0.10969829559326172,-0.10782050341367722
1744896820151445200,12.6844453125,-0.07934951782226562,-0.11118066310882568,-0.10928460210561752
1744896820168256800,12.7012568359375,0.024285316467285156,-0.07023811340332031,-0.09990395605564117
1744896820185065200,12.718065185546875,0.0941314697265625,-0.014727234840393066,-0.1188511848449707
1744896820201865700,12.73486572265625,0.11510181427001953,0.048619627952575684,-0.14815065264701843
1744896820218689000,12.75168896484375,0.11755847930908203,0.10939276218414307,-0.18722492456436157
1744896820235484000,12.76848388671875,0.13469791412353516,0.14964091777801514,-0.2377777099609375
1744896820252311800,12.785311767578126,0.16966629028320312,0.16030454635620117,-0.2501467764377594
1744896820269105700,12.802105712890626,0.15056133270263672,0.14243650436401367,-0.21335959434509277
1744896820285916400,12.81891650390625,0.0480194091796875,0.1261904239654541,-0.19695743918418884
1744896820302730800,12.835730712890625,-0.05582427978515625,0.12374341487884521,-0.21507087349891663
1744896820319539000,12.8525390625,-0.1161947250366211,0.10046505928039551,-0.24325552582740784
1744896820336355800,12.86935595703125,-0.1251392364501953,0.0509108304977417,-0.22913235425949097
1744896820353164000,12.8861640625,-0.15224075317382812,-0.00728297233581543,-0.1845042109489441
1744896820369975000,12.90297509765625,-0.19812393188476562,-0.01632106304168701,-0.1423095166683197
1744896820386803500,12.919803466796875,-0.23677539825439453,0.019195199012756348,-0.12066280096769333
1744896820403610600,12.936610595703126,-0.22412490844726562,0.042414307594299316,-0.11386588215827942
1744896820420398800,12.95339892578125,-0.17383956909179688,0.027474403381347656,-0.11544042080640793
1744896820437212000,12.9702119140625,-0.11642265319824219,0.02252352237701416,-0.11024191975593567
1744896820454033400,12.987033447265626,-0.06101417541503906,0.05543875694274902,-0.07024945318698883
1744896820470841300,13.00384130859375,0.0017461776733398438,0.08992087841033936,-0.05351516604423523
1744896820487652600,13.020652587890625,0.087066650390625,0.10472226142883301,-0.08086545020341873
1744896820504463400,13.03746337890625,0.1793079376220703,0.1095888614654541,-0.12083353102207184
1744896820521274600,13.054274658203125,0.22524261474609375,0.1046144962310791,-0.13435766100883484
1744896820538085400,13.07108544921875,0.18752002716064453,0.09132111072540283,-0.1259034276008606
1744896820554893300,13.087893310546875,0.09360122680664062,0.07111895084381104,-0.09461268037557602
1744896820571710700,13.104710693359374,-0.028367042541503906,0.04281890392303467,-0.045043885707855225
1744896820588536600,13.12153662109375,-0.12722110748291016,0.0032885074615478516,-0.030727878212928772
1744896820605343000,13.138343017578125,-0.20231914520263672,-0.03545224666595459,-0.041466400027275085
1744896820622154200,13.155154296875,-0.21631813049316406,-0.044588446617126465,-0.05377065762877464
1744896820638949000,13.17194921875,-0.18500804901123047,-0.031120657920837402,-0.09276361763477325
1744896820655773200,13.188773193359374,-0.10995006561279297,-0.008305668830871582,-0.14081299304962158
1744896820672592000,13.205591796875,-0.005745887756347656,-0.02224743366241455,-0.12370368838310242
1744896820689382400,13.22238232421875,-0.010412216186523438,0.02745068073272705,-0.09579142928123474
1744896820706210000,13.2392099609375,-0.043089866638183594,0.03499460220336914,-0.19370710849761963
1744896820723020800,13.256020751953125,0.017278671264648438,0.12311959266662598,-0.10108540952205658
1744896820739831800,13.272831787109375,0.06398296356201172,0.08621370792388916,-0.12453640252351761
1744896820756634600,13.289634521484375,0.1125631332397461,0.15124857425689697,-0.09369755536317825
1744896820773445400,13.3064453125,0.1359272003173828,0.10617947578430176,-0.06903190165758133
1744896820790251800,13.323251708984374,0.10504150390625,0.03208422660827637,-0.07471860945224762
1744896820807062000,13.34006201171875,0.0206756591796875,0.04442918300628662,-0.05532092973589897
1744896820823873300,13.356873291015624,-0.06746482849121094,0.05636763572692871,-0.027947276830673218
1744896820840684500,13.3736845703125,-0.10529613494873047,0.044965505599975586,0.048742860555648804
1744896820857491500,13.390491455078125,-0.10796260833740234,0.017177700996398926,0.09675409644842148
1744896820874327600,13.40732763671875,-0.08405685424804688,0.0010943412780761719,0.08788365870714188
1744896820891127300,13.424127197265625,-0.06645393371582031,0.010642766952514648,0.037448909133672714
1744896820907946800,13.44094677734375,-0.021617889404296875,0.019684672355651855,-0.03259739279747009
1744896820924720000,13.45772021484375,-0.034732818603515625,0.020998120307922363,-0.04603075981140137
1744896820941554000,13.474553955078125,-0.08057212829589844,0.04980957508087158,-0.030570819973945618
1744896820958362000,13.491362060546875,-0.08837318420410156,0.0667726993560791,-0.04527060687541962
1744896820975169300,13.508169189453126,-0.06154918670654297,0.07112360000610352,-0.07219226658344269
1744896820991986400,13.524986328125,-0.006439208984375,0.052597641944885254,-0.10171547532081604
1744896821008795400,13.54179541015625,0.026589393615722656,0.05713844299316406,-0.12677575647830963
1744896821025593300,13.55859326171875,0.026117324829101562,0.08097660541534424,-0.13553525507450104
1744896821042417000,13.5754169921875,0.00521087646484375,0.08793270587921143,-0.12084554135799408
1744896821059216000,13.5922158203125,-0.013629913330078125,0.08122396469116211,-0.06379804015159607
1744896821076038700,13.60903857421875,-0.042636871337890625,0.037107110023498535,-0.010855808854103088
1744896821092864300,13.6258642578125,-0.0664520263671875,0.008886337280273438,0.013746052980422974
1744896821109678300,13.64267822265625,-0.058449745178222656,0.01655566692352295,0.05329027771949768
1744896821126486000,13.659486083984374,-0.08110523223876953,0.006009936332702637,0.07116273045539856
1744896821143297000,13.676297119140624,-0.0997915267944336,0.019230127334594727,0.06424115598201752
1744896821160091400,13.69309130859375,-0.09564399719238281,0.06335031986236572,0.028043895959854126
1744896821176919000,13.7099189453125,-0.05299663543701172,0.09592759609222412,0.011329114437103271
1744896821193726700,13.726726806640626,0.07593822479248047,0.08878719806671143,0.039699673652648926
1744896821210545000,13.743544921875,0.14488792419433594,0.04708218574523926,0.05302231013774872
1744896821227352000,13.76035205078125,0.10445117950439453,0.08215677738189697,-0.011414825916290283
1744896821244162800,13.777162841796875,0.0863962173461914,0.10064327716827393,-0.048686474561691284
1744896821260950300,13.7939501953125,0.049098968505859375,0.06588160991668701,-0.015309154987335205
1744896821277771300,13.810771240234375,0.030742645263671875,0.02080690860748291,0.05528637766838074
1744896821294582800,13.827582763671876,0.007744789123535156,-0.0058553218841552734,0.08293475210666656
1744896821311393500,13.8443935546875,-0.03767681121826172,-0.025995612144470215,0.06233437359333038
1744896821328204800,13.861204833984376,-0.0675821304321289,-0.021138906478881836,0.008200854063034058
1744896821345023500,13.8780234375,-0.11967182159423828,0.006787419319152832,0.026780128479003906
1744896821361831200,13.8948310546875,-0.16101455688476562,-0.009215831756591797,0.04066219925880432
1744896821378651600,13.911651611328125,-0.16598892211914062,0.0035152435302734375,0.04615616798400879
1744896821395463400,13.92846337890625,-0.15640830993652344,0.0613706111907959,-0.03201025724411011
1744896821412269600,13.94526953125,-0.10524749755859375,0.1322263479232788,-0.05619370937347412
1744896821429056000,13.962055908203125,-0.039165496826171875,0.13571929931640625,-0.012897878885269165
1744896821445884200,13.97888427734375,0.020738601684570312,0.13286972045898438,0.04593828320503235
1744896821462684200,13.99568408203125,0.060561180114746094,0.12090015411376953,0.013230681419372559
1744896821479491600,14.01249169921875,0.0693368911743164,0.11589694023132324,-0.024090170860290527
1744896821496316000,14.02931591796875,0.11092185974121094,0.10283946990966797,-0.04062783718109131
1744896821513127000,14.046126953125,0.1387615203857422,0.039792776107788086,-0.017127633094787598
1744896821529934600,14.0629345703125,0.1167001724243164,-0.011742949485778809,0.033681720495224
1744896821546754000,14.079754150390626,0.08399105072021484,-0.052437663078308105,0.08342719078063965
1744896821563556400,14.096556396484376,0.02508831024169922,-0.0826730728149414,0.1240241527557373
1744896821580373500,14.11337353515625,-0.05611419677734375,-0.10396802425384521,0.15479816496372223
1744896821597174800,14.1301748046875,-0.139495849609375,-0.10358929634094238,0.14333678781986237
1744896821614009900,14.147009765625,-0.19066810607910156,-0.053913235664367676,0.11361110210418701
1744896821630813400,14.1638134765625,-0.22411823272705078,0.009793400764465332,0.07459506392478943
1744896821647628300,14.180628173828126,-0.21123504638671875,0.06410932540893555,0.04031938314437866
1744896821664427000,14.197427001953125,-0.12233161926269531,0.11628353595733643,0.015227437019348145
1744896821681249500,14.21424951171875,0.0011138916015625,0.1374720335006714,-0.035742610692977905
1744896821698051000,14.231051025390625,0.07347965240478516,0.15130376815795898,-0.07708242535591125
1744896821714870300,14.247870361328125,0.11358261108398438,0.15729808807373047,-0.08128747344017029
1744896821731684400,14.264684326171874,0.10563373565673828,0.11851513385772705,-0.03830638527870178
1744896821748477000,14.281476806640624,0.05646324157714844,0.04586207866668701,0.03594823181629181
1744896821765291800,14.298291748046875,-0.0024385452270507812,0.02849745750427246,0.11000832915306091
1744896821782102800,14.315102783203125,-0.038135528564453125,0.043323516845703125,0.1809036135673523
1744896821798901000,14.33190087890625,-0.06143665313720703,0.03434944152832031,0.26280641555786133
1744896821815724500,14.348724609375,-0.07799053192138672,-0.009639978408813477,0.33189576864242554
1744896821832547600,14.365547607421876,-0.13467693328857422,-0.04291725158691406,0.3361680507659912
1744896821849350100,14.38235009765625,-0.15436840057373047,-0.03840482234954834,0.2833004593849182
1744896821866172200,14.399172119140625,-0.14750194549560547,-0.03983283042907715,0.18071600794792175
1744896821882982400,14.415982421875,-0.05115222930908203,-0.0515289306640625,0.15496955811977386
1744896821899779000,14.432779052734375,0.06073474884033203,-0.06544482707977295,0.14676301181316376
1744896821916587800,14.449587890625,0.14841365814208984,-0.09215056896209717,0.0702023059129715
1744896821933417000,14.4664169921875,0.23311710357666016,-0.06905174255371094,-0.022434815764427185
1744896821950213400,14.48321337890625,0.28322315216064453,-0.05903923511505127,-0.11977125704288483
1744896821967024400,14.5000244140625,0.2182302474975586,-0.05393695831298828,-0.1842956691980362
1744896821983835600,14.516835693359376,0.07726860046386719,-0.03734242916107178,-0.24857667088508606
1744896822000646700,14.533646728515626,-0.06485462188720703,0.020633935928344727,-0.3255530595779419
1744896822017457200,14.55045703125,-0.1477041244506836,0.10269665718078613,-0.3543342351913452
1744896822034268700,14.5672685546875,-0.19965457916259766,0.14164066314697266,-0.3656526207923889
1744896822051080000,14.584079833984376,-0.23261547088623047,0.18354129791259766,-0.34888285398483276
1744896822067891000,14.600890869140626,-0.18158435821533203,0.21703219413757324,-0.32819679379463196
1744896822084719400,14.61771923828125,-0.08185958862304688,0.19247937202453613,-0.285236656665802
1744896822101539600,14.63453955078125,0.0023393630981445312,0.149946928024292,-0.22497019171714783
1744896822118337300,14.651337158203125,0.06337642669677734,0.12146985530853271,-0.19614678621292114
1744896822135128000,14.668128173828125,0.09925270080566406,0.10385143756866455,-0.18155908584594727
1744896822151963400,14.68496337890625,0.11338043212890625,0.06632864475250244,-0.16095688939094543
1744896822168771000,14.70177099609375,0.12382221221923828,0.000997781753540039,-0.10602223873138428
1744896822185582000,14.71858203125,0.09840583801269531,-0.04914689064025879,-0.051163315773010254
1744896822202376700,14.735376708984376,0.057613372802734375,-0.08458983898162842,-0.04731127619743347
1744896822219187500,14.7521875,-0.0190582275390625,-0.10843205451965332,-0.09505850076675415
1744896822235997700,14.768997802734376,-0.16145801544189453,-0.11264729499816895,-0.15290409326553345
1744896822252801800,14.7858017578125,-0.26491451263427734,-0.11151444911956787,-0.18180570006370544
1744896822269623600,14.80262353515625,-0.3112354278564453,-0.13564229011535645,-0.23713994026184082
1744896822286434000,14.81943408203125,-0.27624988555908203,-0.1421189308166504,-0.2755489647388458
1744896822303245300,14.836245361328125,-0.16145896911621094,-0.14087390899658203,-0.36365339159965515
1744896822320056600,14.853056640625,-0.07541561126708984,-0.1306602954864502,-0.4027061462402344
1744896822336884700,14.869884765625,0.015386581420898438,-0.06055736541748047,-0.3899397850036621
1744896822353692000,14.88669189453125,0.08107471466064453,0.028142690658569336,-0.35831961035728455
1744896822370503400,14.90350341796875,0.10414409637451172,0.07911562919616699,-0.3173997104167938
1744896822387314700,14.920314697265624,0.09524822235107422,0.13147246837615967,-0.2640833258628845
1744896822404108500,14.937108642578124,0.11864089965820312,0.16672515869140625,-0.2364218831062317
1744896822420922600,14.953922607421875,0.11253643035888672,0.1528005599975586,-0.23768451809883118
1744896822437734000,14.97073388671875,0.0798044204711914,0.11896049976348877,-0.2451300024986267
1744896822454545000,14.987544921875,0.048470497131347656,0.11300301551818848,-0.21017944812774658
1744896822471356200,15.004356201171875,0.010351181030273438,0.0848841667175293,-0.14345741271972656
1744896822488166400,15.02116650390625,-0.008238792419433594,0.021953344345092773,-0.08937487006187439
1744896822504974800,15.037974853515625,-0.03884124755859375,-0.046640753746032715,-0.07166898250579834
1744896822521792000,15.0547919921875,-0.053322792053222656,-0.10033655166625977,-0.06414642930030823
1744896822538600200,15.07160009765625,-0.054950714111328125,-0.1295301914215088,-0.050933897495269775
1744896822555411000,15.088410888671875,-0.03865337371826172,-0.12736356258392334,-0.03994622826576233
1744896822572222200,15.10522216796875,-0.014974594116210938,-0.10373926162719727,-0.04306510090827942
1744896822589032400,15.122032470703125,-0.018573760986328125,-0.05876636505126953,-0.067464679479599
1744896822605858000,15.138858154296875,0.00179290771484375,-0.0031173229217529297,-0.09143868088722229
1744896822622669000,15.1556689453125,0.013606071472167969,0.044190168380737305,-0.11350911855697632
1744896822639464000,15.1724638671875,0.025514602661132812,0.08101487159729004,-0.11610043048858643
1744896822656289500,15.18928955078125,0.0024232864379882812,0.09107589721679688,-0.10354366898536682
1744896822673104100,15.206104248046875,-0.03279304504394531,0.10474216938018799,-0.10417813062667847
1744896822689913000,15.2229130859375,-0.0643930435180664,0.1143730878829956,-0.11085402965545654
1744896822706724400,15.239724365234375,-0.05550956726074219,0.1295706033706665,-0.11558714509010315
1744896822723503600,15.256503662109376,-0.020554542541503906,0.11758482456207275,-0.12469664216041565
1744896822740334300,15.273334228515624,0.012190818786621094,0.10308504104614258,-0.10470271110534668
1744896822757141200,15.290141357421875,0.034659385681152344,0.10055708885192871,-0.0717940628528595
1744896822773953500,15.30695361328125,0.07755374908447266,0.08197641372680664,-0.04444858431816101
1744896822790769000,15.323768798828125,0.10429859161376953,0.04930615425109863,-0.025964975357055664
1744896822807577000,15.3405771484375,0.11273193359375,0.033945322036743164,-0.02503359317779541
1744896822824384300,15.35738427734375,0.10532569885253906,0.04496324062347412,-0.001109302043914795
1744896822841218800,15.37421875,0.08082103729248047,0.04707825183868408,0.01889386773109436
1744896822858019800,15.391019775390625,0.09110546112060547,0.07087445259094238,0.02152159810066223
1744896822874834000,15.407833984375,0.11932849884033203,0.08825862407684326,0.01804792881011963
1744896822891633200,15.424633056640625,0.14887046813964844,0.10100221633911133,0.018621206283569336
1744896822908443100,15.441443115234375,0.1885051727294922,0.12492334842681885,0.018479377031326294
1744896822925254100,15.458254150390625,0.24991703033447266,0.13968169689178467,-0.00415879487991333
1744896822942065200,15.475065185546875,0.2926197052001953,0.15269947052001953,-0.05772125720977783
1744896822958860300,15.4918603515625,0.31571483612060547,0.161080002784729,-0.07627004384994507
1744896822975684000,15.50868408203125,0.2943296432495117,0.17301297187805176,-0.08537217974662781
1744896822992501500,15.52550146484375,0.2655181884765625,0.1932384967803955,-0.06557384133338928
1744896823009297200,15.542297119140626,0.2527332305908203,0.19023728370666504,-0.06737145781517029
1744896823026120200,15.5591201171875,0.2684001922607422,0.1827681064605713,-0.08276566863059998
1744896823042931200,15.57593115234375,0.25733375549316406,0.1563326120376587,-0.08088287711143494
1744896823059742700,15.59274267578125,0.20718669891357422,0.1328815221786499,-0.05655166506767273
1744896823076557300,15.609557373046876,0.17276287078857422,0.10566496849060059,-0.05109667778015137
1744896823093381000,15.626381103515625,0.15532970428466797,0.08440625667572021,-0.049501240253448486
1744896823110186200,15.643186279296875,0.17531967163085938,0.06026101112365723,-0.05746641755104065
1744896823127000800,15.660000732421874,0.16269207000732422,0.04269981384277344,-0.08605048060417175
1744896823143821800,15.67682177734375,0.23212242126464844,0.06308114528656006,-0.07269999384880066
1744896823160605700,15.693605712890625,0.3070192337036133,0.07945466041564941,-0.06744551658630371
1744896823177433900,15.710433837890625,0.3851356506347656,0.09356117248535156,-0.07519382238388062
1744896823194244600,15.72724462890625,0.4178647994995117,0.08575105667114258,-0.0814109742641449
1744896823211038700,15.744038818359375,0.4230165481567383,0.08002114295959473,-0.06641417741775513
1744896823227852800,15.760852783203125,0.39867687225341797,0.08142709732055664,-0.05388069152832031
1744896823244662000,15.777662109375,0.40308380126953125,0.08458709716796875,-0.03570389747619629
1744896823261469400,15.794469482421874,0.4473390579223633,0.09283459186553955,-0.0666562020778656
1744896823278286300,15.811286376953126,0.49603271484375,0.07066082954406738,-0.10481181740760803
1744896823295094000,15.828093994140625,0.47608280181884766,0.061193227767944336,-0.09947320818901062
1744896823311925800,15.84492578125,0.4880380630493164,0.0752187967300415,-0.07799136638641357
1744896823328719600,15.8617197265625,0.50958251953125,0.06857216358184814,-0.07979583740234375
1744896823345544000,15.8785439453125,0.5562248229980469,0.052574753761291504,-0.10563337802886963
1744896823362338000,15.895338134765625,0.5433864593505859,0.03381907939910889,-0.12121185660362244
1744896823379146000,15.91214599609375,0.5664119720458984,0.03953373432159424,-0.07336243987083435
1744896823395963400,15.92896337890625,0.5715703964233398,0.03367972373962402,-0.05362677574157715
1744896823412775000,15.94577490234375,0.6017723083496094,0.03938567638397217,-0.07431843876838684
1744896823429582300,15.962582275390625,0.601414680480957,0.04999279975891113,-0.07658526301383972
1744896823446399200,15.979399169921875,0.5734500885009766,0.046787142753601074,-0.05521249771118164
1744896823463207400,15.99620751953125,0.5485496520996094,0.029261350631713867,0.00952640175819397
1744896823480006000,16.013005859375,0.5334453582763672,0.0002790689468383789,0.05432292819023132
1744896823496810000,16.02981005859375,0.4921865463256836,-0.007460117340087891,0.06361475586891174
1744896823513640700,16.046640625,0.4673604965209961,0.026039481163024902,0.032859593629837036
1744896823530448400,16.063448486328124,0.46147823333740234,0.03658270835876465,0.021052658557891846
1744896823547266300,16.080266357421873,0.4646720886230469,0.030553698539733887,0.010904639959335327
1744896823564073500,16.097073486328124,0.48836708068847656,0.0348430871963501,0.021511346101760864
1744896823580869000,16.113869140625,0.5646867752075195,0.05633950233459473,0.004941195249557495
1744896823597692200,16.130692138671876,0.6280632019042969,0.07615482807159424,-0.01130765676498413
1744896823614505000,16.1475048828125,0.6878042221069336,0.09029483795166016,0.001702040433883667
1744896823631315000,16.16431494140625,0.6876754760742188,0.08798623085021973,-0.00004908442497253418
1744896823648126000,16.1811259765625,0.6556377410888672,0.08181393146514893,-0.015033334493637085
1744896823664935000,16.197934814453124,0.5796451568603516,0.07964849472045898,-0.05027550458908081
1744896823681754600,16.214754638671874,0.4555215835571289,0.06162679195404053,-0.07309868931770325
1744896823698542800,16.23154296875,0.3210868835449219,0.037627458572387695,-0.03440660238265991
1744896823715373300,16.248373291015625,0.2258586883544922,0.02081155776977539,0.007705122232437134
1744896823732184300,16.265184326171877,0.1478137969970703,-0.0017924308776855469,0.02232646942138672
1744896823749009000,16.2820087890625,0.10670185089111328,0.010313868522644043,0.02240806818008423
1744896823765806300,16.298806396484373,0.08089828491210938,0.02123427391052246,-0.012102574110031128
1744896823782617300,16.315617431640625,0.2681694030761719,0.07944631576538086,-0.0644943118095398
1744896823799429600,16.3324296875,0.49349498748779297,0.02601766586303711,-0.21122989058494568
1744896823816240000,16.349240234375,0.6132230758666992,0.023995518684387207,-0.22581270337104797
1744896823833062100,16.366062255859376,0.6869964599609375,0.08066117763519287,-0.11186203360557556
1744896823849875500,16.38287548828125,0.7301177978515625,0.10439229011535645,-0.045088887214660645
1744896823866671600,16.399671630859373,0.7689304351806641,0.12886786460876465,-0.09903183579444885
1744896823883480300,16.416480224609376,0.8638372421264648,0.14796078205108643,-0.17437249422073364
1744896823900294400,16.43329443359375,0.9779844284057617,0.14329111576080322,-0.14979907870292664
1744896823917105700,16.450105712890625,0.9879264831542969,0.058373212814331055,-0.03985470533370972
1744896823933911300,16.466911376953124,0.8378210067749023,0.03583323955535889,0.03416141867637634
1744896823950724900,16.483724853515625,0.5731239318847656,0.06845366954803467,0.056005463004112244
1744896823967542000,16.5005419921875,0.2845907211303711,0.12489080429077148,0.07459378242492676
1744896823984350200,16.51735009765625,0.21190166473388672,0.12996017932891846,0.05208966135978699
1744896824001160000,16.534159912109374,0.22793102264404297,0.060621023178100586,-0.05666765570640564
1744896824017973500,16.550973388671874,0.2833070755004883,0.04421544075012207,-0.08340021967887878
1744896824034779600,16.567779541015625,0.2962665557861328,0.04336977005004883,-0.030282020568847656
1744896824051594500,16.584594482421874,0.28078556060791016,0.08470606803894043,-0.030348539352416992
1744896824068408300,16.601408203125,0.28080081939697266,0.09659743309020996,-0.09673517942428589
1744896824085229600,16.6182294921875,0.34607410430908203,0.12850773334503174,-0.14769211411476135
1744896824102048800,16.635048828125,0.4360227584838867,0.05022752285003662,-0.1680239737033844
1744896824118848000,16.651847900390624,0.503788948059082,0.06156754493713379,-0.006497830152511597
1744896824135629800,16.6686298828125,0.5802001953125,0.05617117881774902,0.07335412502288818
1744896824152474000,16.68547412109375,0.5752096176147461,0.05248916149139404,0.10362574458122253
1744896824169268700,16.702268798828126,0.5727500915527344,0.10412490367889404,0.04697349667549133
1744896824186079200,16.719079345703125,0.5644407272338867,0.12581157684326172,-0.08891847729682922
1744896824202893800,16.735893798828126,0.5467824935913086,0.14333224296569824,-0.17387333512306213
1744896824219705000,16.752705078125,0.4701261520385742,0.13809096813201904,-0.1352405846118927
1744896824236515300,16.769515380859374,0.42945098876953125,0.15294921398162842,-0.10394302010536194
1744896824253326800,16.786326904296875,0.3969240188598633,0.11108958721160889,-0.09437152743339539
1744896824270137900,16.803137939453126,0.3869142532348633,0.09851658344268799,-0.08082303404808044
1744896824286966800,16.819966796875,0.38047218322753906,0.09199655055999756,-0.07181933522224426
1744896824303773200,16.836773193359374,0.4417591094970703,0.09400105476379395,-0.046912699937820435
1744896824320584700,16.853584716796874,0.5606460571289062,0.07561707496643066,-0.053705304861068726
1744896824337395500,16.8703955078125,0.6084423065185547,0.03538322448730469,-0.08740150928497314
1744896824354207500,16.88720751953125,0.6585111618041992,0.08451175689697266,-0.07935705780982971
1744896824370998800,16.903998779296874,0.6337013244628906,0.11353611946105957,-0.08293294906616211
1744896824387816400,16.92081640625,0.5759525299072266,0.1163475513458252,-0.04698839783668518
1744896824404626200,16.937626220703127,0.5384321212768555,0.11581289768218994,0.03530505299568176
1744896824421437400,16.9544375,0.49077415466308594,0.09293925762176514,0.07189607620239258
1744896824438248000,16.971248046875,0.40590381622314453,0.10262584686279297,0.025548815727233887
1744896824455056100,16.98805615234375,0.3131866455078125,0.14022493362426758,-0.02939826250076294
1744896824471890700,17.004890625,0.2698850631713867,0.15530085563659668,-0.027404099702835083
1744896824488678100,17.02167822265625,0.3270387649536133,0.1095726490020752,-0.004288613796234131
1744896824505492200,17.0384921875,0.4319934844970703,0.06101226806640625,-0.020040810108184814
1744896824522303500,17.055303466796875,0.5333166122436523,0.029631614685058594,-0.05875837802886963
1744896824539101700,17.072101806640624,0.5531797409057617,0.007472038269042969,-0.1102796196937561
1744896824555913700,17.088913818359377,0.5316333770751953,0.022755861282348633,-0.1094629168510437
1744896824572736300,17.105736328125,0.4957313537597656,0.025202631950378418,-0.09968829154968262
1744896824589565000,17.12256494140625,0.47209835052490234,0.03024470806121826,-0.08031576871871948
1744896824606372400,17.139372314453126,0.3871946334838867,0.0450894832611084,-0.026235431432724
1744896824623184100,17.15618408203125,0.3071765899658203,0.09374678134918213,0.0211925208568573
1744896824639997200,17.1729970703125,0.2630157470703125,0.1224287748336792,-0.014127165079116821
1744896824656766000,17.189765869140626,0.22775745391845703,0.09980225563049316,-0.08123496174812317
1744896824673603800,17.206603759765624,0.23157501220703125,0.07635259628295898,-0.07751905918121338
1744896824690414300,17.223414306640624,0.27199745178222656,0.06197845935821533,-0.030951648950576782
1744896824707224800,17.240224853515624,0.3226327896118164,0.03202533721923828,-0.02908232808113098
1744896824724036000,17.2570361328125,0.3643331527709961,0.02508389949798584,-0.039215147495269775
1744896824740847400,17.273847412109376,0.36075782775878906,0.016724824905395508,-0.04164540767669678
1744896824757654500,17.290654541015623,0.306976318359375,0.024207592010498047,-0.03414800763130188
1744896824774490400,17.307490478515625,0.2273397445678711,0.02793574333190918,-0.03977560997009277
1744896824791294200,17.324294189453123,0.18052196502685547,0.04954075813293457,-0.041093528270721436
1744896824808105000,17.34110498046875,0.13416290283203125,0.031092524528503418,-0.0832730233669281
1744896824824912600,17.35791259765625,0.10300636291503906,0.03542029857635498,-0.08211547136306763
1744896824841731300,17.3747314453125,0.12788772583007812,0.03198230266571045,-0.10021474957466125
1744896824858518300,17.391518310546875,0.18009281158447266,0.04735863208770752,-0.09329637885093689
1744896824875338800,17.4083388671875,0.24345111846923828,0.056801557540893555,-0.05951431393623352
1744896824892146700,17.425146728515625,0.3077411651611328,0.06782615184783936,-0.06795236468315125
1744896824908955400,17.441955322265624,0.295623779296875,0.0662451982498169,-0.07407742738723755
1744896824925768700,17.458768798828125,0.24303531646728516,0.08958590030670166,-0.06816893815994263
1744896824942579500,17.475579345703125,0.14690208435058594,0.08674371242523193,-0.045518457889556885
1744896824959387600,17.4923876953125,0.07336711883544922,0.09026873111724854,-0.06356260180473328
1744896824976213000,17.509212890625,0.03312873840332031,0.10578572750091553,-0.09864553809165955
1744896824993015800,17.526015869140625,0.08913326263427734,0.09249758720397949,-0.08587685227394104
1744896825009824000,17.542823974609377,0.19888877868652344,0.05564594268798828,-0.039990365505218506
1744896825026635300,17.55963525390625,0.2953662872314453,0.01981651782989502,-0.019863009452819824
1744896825043445500,17.576445556640625,0.3223457336425781,0.01833033561706543,-0.009704679250717163
1744896825060257300,17.59325732421875,0.2212677001953125,0.032976746559143066,0.016126811504364014
1744896825077071400,17.6100712890625,0.10349178314208984,0.036908864974975586,0.04821041226387024
1744896825093894400,17.626894287109376,0.009737968444824219,0.021517515182495117,0.07741647958755493
1744896825110702300,17.643702392578124,0.04773998260498047,0.0044116973876953125,0.08554333448410034
1744896825127513900,17.660513916015624,0.08044052124023438,-0.013919711112976074,0.0442938506603241
1744896825144337700,17.677337646484375,0.11200237274169922,-0.014914274215698242,0.006921172142028809
1744896825161120300,17.694120361328125,0.07573127746582031,0.03020191192626953,-0.0071096718311309814
1744896825177930800,17.7109306640625,0.002063751220703125,0.03327810764312744,-0.045103251934051514
1744896825194745300,17.727745361328125,-0.06458377838134766,0.057920217514038086,-0.0431348979473114
1744896825211560000,17.744559814453126,-0.055047035217285156,0.016853928565979004,-0.03516107797622681
1744896825228367000,17.7613671875,-0.10711860656738281,0.010244131088256836,-0.07024592161178589
1744896825245179000,17.778178955078126,-0.12870025634765625,0.038021206855773926,-0.12810659408569336
1744896825262033000,17.795032958984375,-0.1094350814819336,0.059661269187927246,-0.1538022756576538
1744896825278811100,17.81181103515625,-0.0066738128662109375,0.04895126819610596,-0.09659439325332642
1744896825295625700,17.828625732421877,0.06412029266357422,0.010362386703491211,-0.045843422412872314
1744896825312443000,17.84544287109375,0.10767841339111328,0.026098251342773438,-0.029751956462860107
1744896825329226000,17.86222607421875,0.07126140594482422,0.029511213302612305,-0.043629199266433716
1744896825346059300,17.879059326171873,-0.01976776123046875,0.02164781093597412,0.0033600330352783203
1744896825362843100,17.895843017578127,-0.07167339324951172,0.04701733589172363,0.007998734712600708
1744896825379667000,17.9126669921875,-0.12026119232177734,0.01617574691772461,-0.011775076389312744
1744896825396478200,17.929478271484374,-0.1786327362060547,0.016774654388427734,-0.046869128942489624
1744896825413289200,17.946289306640626,-0.2692079544067383,0.02878892421722412,-0.06827151775360107
1744896825430098400,17.963098388671874,-0.2857093811035156,0.034697771072387695,-0.05002143979072571
1744896825446916400,17.979916259765623,-0.19874095916748047,0.015407085418701172,-0.05993148684501648
1744896825463719400,17.996719482421874,-0.08222484588623047,-0.0015001296997070312,-0.03564918041229248
1744896825480517000,18.01351708984375,-0.030612945556640625,0.0018268823623657227,-0.08510008454322815
1744896825497354500,18.0303544921875,-0.034537315368652344,0.013091087341308594,-0.010556727647781372
1744896825514155000,18.047155029296874,-0.004809379577636719,0.03923666477203369,0.055643171072006226
1744896825530964000,18.0639638671875,0.044678688049316406,0.019762754440307617,-0.027856111526489258
1744896825547779800,18.08077978515625,0.02689838409423828,0.013597488403320312,-0.05171680450439453
1744896825564588800,18.0975888671875,-0.02221393585205078,0.05606245994567871,-0.04061344265937805
1744896825581416200,18.114416259765626,-0.08549880981445312,0.10532665252685547,-0.07413455843925476
1744896825598207000,18.13120703125,-0.060860633850097656,0.12589740753173828,-0.05622240900993347
1744896825615032000,18.148031982421877,-0.023122787475585938,0.109092116355896,-0.021038740873336792
1744896825631851800,18.164851806640623,0.033267974853515625,0.07998359203338623,0.018509000539779663
1744896825648643600,18.1816435546875,0.019583702087402344,0.07547390460968018,-0.03866708278656006
1744896825665451300,18.198451171875,0.0001850128173828125,0.11909258365631104,-0.033028990030288696
1744896825682265600,18.215265625,0.11528396606445312,0.14327430725097656,-0.014205843210220337
1744896825699058000,18.232057861328126,0.2167043685913086,0.08526825904846191,0.018291860818862915
1744896825715887600,18.2488876953125,0.2796010971069336,0.04255974292755127,0.017252624034881592
1744896825732685800,18.265685791015624,0.1856088638305664,0.04222071170806885,-0.005393803119659424
1744896825749511000,18.282510986328123,-0.0007724761962890625,0.06426596641540527,0.017084956169128418
1744896825766335000,18.2993349609375,-0.13810253143310547,0.061157941818237305,0.060769855976104736
1744896825783114000,18.316114013671875,-0.1734151840209961,0.011109709739685059,0.009325742721557617
1744896825799940400,18.3329404296875,-0.14989948272705078,0.0075609683990478516,-0.048344314098358154
1744896825816768500,18.3497685546875,-0.1321125030517578,0.0447080135345459,-0.12515351176261902
1744896825833607000,18.36660693359375,-0.05574989318847656,0.0699089765548706,-0.12914538383483887
1744896825850372900,18.383372802734375,0.020818710327148438,0.03732156753540039,-0.17286235094070435
1744896825867187500,18.4001875,0.21369075775146484,0.02284705638885498,-0.19125255942344666
1744896825883998500,18.41699853515625,0.4497814178466797,0.04513251781463623,-0.1201651394367218
1744896825900809700,18.433809814453124,0.4653129577636719,0.052207350730895996,-0.0017047673463821411
1744896825917620200,18.4506201171875,0.20159053802490234,0.059282660484313965,0.042649418115615845
1744896825934431500,18.467431396484375,-0.1589345932006836,0.07399940490722656,-0.013106495141983032
1744896825951260000,18.484260009765624,-0.37680816650390625,0.14441120624542236,-0.03929315507411957
1744896825968067600,18.501067626953127,-0.4551868438720703,0.16004931926727295,-0.1280672401189804
1744896825984857900,18.51785791015625,-0.3057098388671875,0.14384722709655762,-0.1164856106042862
1744896826001678800,18.534678955078125,-0.062050819396972656,0.02949690818786621,-0.1354805827140808
1744896826018486800,18.55148681640625,0.05806159973144531,-0.04326748847961426,-0.14248523116111755
1744896826035285000,18.568284912109377,0.09870624542236328,-0.009338974952697754,-0.09171491861343384
1744896826052108800,18.58510888671875,0.07317829132080078,-0.012166500091552734,-0.12817278504371643
1744896826068908300,18.601908203125,0.13237285614013672,-0.0301591157913208,-0.15694406628608704
