time,seconds_elapsed,z,y,x
1744896807602039000,0.1350390625,9.668798446655273,1.4715858697891235,-0.41575294733047485
1744896807618786300,0.151786376953125,9.468399047851562,1.4991034269332886,-0.3433700501918793
1744896807635616800,0.16861669921875,9.391230583190918,1.5696916580200195,-0.30987054109573364
1744896807652426500,0.185426513671875,9.476774215698242,1.628315806388855,-0.3523431420326233
1744896807669222400,0.202222412109375,9.643074989318848,1.643869161605835,-0.47258245944976807
1744896807686049000,0.219049072265625,9.761520385742188,1.6875381469726562,-0.50129634141922
1744896807702857200,0.235857177734375,9.851848602294922,1.7126628160476685,-0.5395814776420593
1744896807719667200,0.252667236328125,9.836894035339355,1.7509479522705078,-0.5676971673965454
1744896807736487000,0.26948681640625,9.817152976989746,1.8083757162094116,-0.5964110493659973
1744896807753292800,0.286292724609375,9.702896118164062,1.8502501249313354,-0.48574298620224
1744896807770105000,0.30310498046875,9.755537986755371,1.8783657550811768,-0.39062830805778503
1744896807786915300,0.319915283203125,9.70349407196045,1.8305093050003052,-0.3762713670730591
1744896807803724500,0.336724609375,9.728020668029785,1.7874385118484497,-0.3762713670730591
1744896807820532700,0.35353271484375,9.641879081726074,1.7916259765625,-0.42412781715393066
1744896807837354000,0.37035400390625,9.388837814331055,1.8185452222824097,-0.32303106784820557
1744896807854155300,0.3871552734375,9.208179473876953,1.8544375896453857,-0.064606212079525
1744896807870975500,0.4039755859375,9.023932456970215,1.7904295921325684,0.20338992774486542
1744896807887781600,0.42078173828125,8.983254432678223,1.669592022895813,0.37028929591178894
1744896807904593400,0.437593505859375,9.05563735961914,1.5978072881698608,0.43190449476242065
1744896807921404000,0.45440380859375,9.336793899536133,1.5906288623809814,0.3355933725833893
1744896807938216000,0.4712158203125,9.660423278808594,1.5649060010910034,0.04307080805301666
1744896807955021600,0.488021484375,10.04148006439209,1.534995675086975,-0.18723836541175842
1744896807971842000,0.504842041015625,10.29033374786377,1.4745769500732422,-0.259621262550354
1744896807988648000,0.52164794921875,10.466206550598145,1.4901303052902222,-0.3320041298866272
1744896808005460000,0.5384599609375,10.40339469909668,1.552343726158142,-0.4414757788181305
1744896808022276900,0.55527685546875,10.129416465759277,1.685145378112793,-0.48813581466674805
1744896808039078000,0.572077880859375,9.780662536621094,1.8065811395645142,-0.3529413342475891
1744896808055888100,0.58888818359375,9.432506561279297,1.8562321662902832,-0.09810572862625122
1744896808072708600,0.60570849609375,9.242876052856445,1.8203397989273071,0.10229317098855972
1744896808089497000,0.6224970703125,9.215956687927246,1.7240287065505981,0.2309073805809021
1744896808106312400,0.6393125,9.274580955505371,1.5996019840240479,0.2638086974620819
1744896808123130000,0.656130126953125,9.351150512695312,1.5194423198699951,0.2105683982372284
1744896808139934500,0.6729345703125,9.456435203552246,1.4727823734283447,0.1052841991186142
1744896808156744700,0.68974462890625,9.512666702270508,1.51166570186615,-0.014356935396790504
1744896808173556700,0.706556640625,9.530014038085938,1.5846468210220337,-0.18125630915164948
1744896808190363600,0.72336376953125,9.500103950500488,1.689931035041809,-0.24227328598499298
1744896808207182000,0.74018212890625,9.475577354431152,1.7850457429885864,-0.23270200192928314
1744896808223978200,0.756978271484375,9.517452239990234,1.8909281492233276,-0.23688943684101105
1744896808240817700,0.773817626953125,9.516854286193848,1.9573289155960083,-0.23688943684101105
1744896808257619700,0.79061962890625,9.578469276428223,2.015354871749878,-0.20338992774486542
1744896808274438100,0.807438232421875,9.645467758178711,2.053640127182007,-0.16510476171970367
1744896808291232500,0.824232421875,9.750752449035645,2.035095691680908,-0.15074782073497772
1744896808308062000,0.84106201171875,9.927821159362793,2.026122570037842,-0.13220344483852386
1744896808324848000,0.85784814453125,10.037891387939453,1.9411773681640625,-0.1423729509115219
1744896808341685000,0.87468505859375,10.057631492614746,1.898106575012207,-0.14775680005550385
1744896808358491400,0.891491455078125,9.966704368591309,1.887937068939209,-0.15194423496723175
1744896808375305500,0.908305419921875,9.842277526855469,1.8921245336532593,-0.20937198400497437
1744896808392108500,0.925108642578125,9.694520950317383,1.85383939743042,-0.2566302418708801
1744896808408944600,0.941944580078125,9.509077072143555,1.8143577575683594,-0.2231307178735733
1744896808425715200,0.958715087890625,9.332008361816406,1.8179470300674438,-0.18903298676013947
1744896808442575600,0.97557568359375,9.1986083984375,1.811964988708496,-0.14117653667926788
1744896808459327200,0.9923271484375,9.113064765930176,1.825723648071289,-0.0975075215101242
1744896808476156000,1.009156005859375,9.094520568847656,1.8299111127853394,-0.020937198773026466
1744896808492966400,1.02596630859375,9.132805824279785,1.815554141998291,-0.0023928226437419653
1744896808509778200,1.042778076171875,9.323633193969727,1.7832510471343994,-0.05563312768936157
1744896808526588200,1.059588134765625,9.55753231048584,1.7665013074874878,-0.1704886108636856
1744896808543400200,1.076400146484375,9.752547264099121,1.7676976919174194,-0.2715853750705719
1744896808560227000,1.09322705078125,9.852447509765625,1.7922241687774658,-0.2715853750705719
1744896808577019000,1.110018798828125,9.92423152923584,1.8215361833572388,-0.23808585107326508
1744896808593832700,1.126832763671875,9.927821159362793,1.8598214387893677,-0.3242274820804596
1744896808610644700,1.143644775390625,9.936196327209473,1.9226330518722534,-0.44805604219436646
1744896808627454500,1.160454345703125,9.90688419342041,1.9615163803100586,-0.5718846321105957
1744896808644266500,1.1772666015625,9.792028427124023,1.9896320104599,-0.5665007829666138
1744896808661076500,1.194076416015625,9.701699256896973,1.9836499691009521,-0.47557350993156433
1744896808677888500,1.210888427734375,9.621540069580078,1.9591234922409058,-0.3900300860404968
1744896808694703400,1.227703369140625,9.612566947937012,1.9058831930160522,-0.3278166949748993
1744896808711512600,1.2445126953125,9.613164901733398,1.848455548286438,-0.31405797600746155
1744896808728338000,1.261337890625,9.617950439453125,1.805384635925293,-0.3236292600631714
1744896808745142300,1.278142333984375,9.622735977172852,1.8011972904205322,-0.33798620104789734
1744896808761943600,1.294943603515625,9.613164901733398,1.810768485069275,-0.33798620104789734
1744896808778768600,1.3117685546875,9.599406242370605,1.7910277843475342,-0.31405797600746155
1744896808795563800,1.328563720703125,9.613762855529785,1.7670994997024536,-0.30927231907844543
1744896808812391400,1.345391357421875,9.652048110961914,1.7581263780593872,-0.3188436031341553
1744896808829184300,1.362184326171875,9.723235130310059,1.7826528549194336,-0.3858426511287689
1744896808846013000,1.379012939453125,9.770493507385254,1.8023936748504639,-0.46719861030578613
1744896808862824000,1.395823974609375,9.760323524475098,1.8502501249313354,-0.4863412082195282
1744896808879619300,1.412619384765625,9.611968994140625,1.8735800981521606,-0.5240281820297241
1744896808896434000,1.429433837890625,9.539586067199707,1.9399809837341309,-0.50907301902771
1744896808913254000,1.44625390625,9.472586631774902,1.963310956954956,-0.4989035129547119
1744896808930059300,1.463059326171875,9.415159225463867,1.9920248985290527,-0.4989035129547119
1744896808946876700,1.479876708984375,9.357730865478516,2.0057835578918457,-0.47976094484329224
1744896808963676000,1.496676025390625,9.309874534606934,2.0338993072509766,-0.43130627274513245
1744896808980480000,1.51347998046875,9.367900848388672,2.014756679534912,-0.39840495586395264
1744896808997297700,1.530297607421875,9.45882797241211,1.9962122440338135,-0.3846462368965149
1744896809014110200,1.547110107421875,9.602396965026855,1.9591234922409058,-0.3846462368965149
1744896809030907000,1.563906982421875,9.698110580444336,1.9208383560180664,-0.3565305769443512
1744896809047735800,1.58073583984375,9.727422714233398,1.8921245336532593,-0.3044866919517517
1744896809064538600,1.59753857421875,9.751350402832031,1.8921245336532593,-0.2470589429140091
1744896809081354200,1.614354248046875,9.765707015991211,1.8873388767242432,-0.2470589429140091
1744896809098164200,1.631164306640625,9.751350402832031,1.9112670421600342,-0.2805584669113159
1744896809114973400,1.647973388671875,9.726823806762695,1.9304096698760986,-0.31405797600746155
1744896809131789300,1.664789306640625,9.698110580444336,1.963310956954956,-0.275174617767334
1744896809148598800,1.681598876953125,9.660423278808594,1.9537396430969238,-0.23210379481315613
1744896809165408500,1.698408447265625,9.584450721740723,1.9196419715881348,-0.19381862878799438
1744896809182220500,1.715220458984375,9.550951957702637,1.94297194480896,-0.1698904037475586
1744896809199010600,1.732010498046875,9.493523597717285,1.94297194480896,-0.14117653667926788
1744896809215859700,1.748859619140625,9.474979400634766,1.913659930229187,-0.12203395366668701
1744896809232666400,1.765666259765625,9.499505996704102,1.8705891370773315,-0.10348957777023315
1744896809249462800,1.782462890625,9.542576789855957,1.8233308792114258,-0.09391828626394272
1744896809266288400,1.799288330078125,9.634101867675781,1.7521443367004395,-0.10887342691421509
1744896809283100700,1.8161005859375,9.720842361450195,1.6761722564697266,-0.09990034252405167
1744896809299910400,1.832910400390625,9.769296646118164,1.5900306701660156,-0.07657032459974289
1744896809316722700,1.84972265625,9.760323524475098,1.542174220085144,-0.04785645380616188
1744896809333532700,1.86653271484375,9.713065147399902,1.5176477432250977,-0.02392822690308094
1744896809350345000,1.883344970703125,9.612566947937012,1.550549030303955,0.014356935396790504
1744896809367154700,1.90015478515625,9.512067794799805,1.602592945098877,0.005383851006627083
1744896809383967000,1.916967041015625,9.44447135925293,1.6648063659667969,-0.037088751792907715
1744896809400776700,1.933776611328125,9.458230018615723,1.7030915021896362,-0.07537391036748886
1744896809417589000,1.950589111328125,9.515059471130371,1.7324036359786987,-0.09451649338006973
1744896809434399000,1.96739892578125,9.638887405395508,1.7521443367004395,-0.16151553392410278
1744896809451194400,1.9841943359375,9.747760772705078,1.7820546627044678,-0.2476571500301361
1744896809468007400,2.00100732421875,9.814162254333496,1.7778671979904175,-0.2955136001110077
1744896809484816400,2.01781640625,9.853045463562012,1.740180253982544,-0.2955136001110077
1744896809501629400,2.03462939453125,9.834501266479492,1.7252250909805298,-0.23389841616153717
1744896809518445000,2.051445068359375,9.849455833435059,1.6863417625427246,-0.17168502509593964
1744896809535252000,2.068251953125,9.830911636352539,1.6474584341049194,-0.06699903309345245
1744896809552063700,2.085063720703125,9.81655502319336,1.5906288623809814,-0.17228323221206665
1744896809568862000,2.101862060546875,9.7005033493042,1.7910277843475342,-0.1663011759519577
1744896809585686000,2.11868603515625,9.522835731506348,1.8191434144973755,-0.28953152894973755
1744896809602492700,2.13549267578125,9.346364974975586,1.8185452222824097,-0.2991028428077698
1744896809619295500,2.15229541015625,9.30748176574707,1.8658034801483154,-0.26979073882102966
1744896809636121600,2.16912158203125,9.364909172058105,1.828116536140442,-0.3415754437446594
1744896809652930000,2.185929931640625,9.628718376159668,1.6103696823120117,-0.50129634141922
1744896809669740300,2.202740234375,9.772886276245117,1.4967105388641357,-0.5210371017456055
1744896809686552600,2.219552490234375,9.8871431350708,1.5547364950180054,-0.47796630859375
1744896809703364000,2.236364013671875,9.80937671661377,1.7593228816986084,-0.4055834412574768
1744896809720186000,2.25318603515625,9.656235694885254,1.9010975360870361,-0.24227328598499298
1744896809737003000,2.2700029296875,9.44626522064209,1.8993029594421387,-0.13639089465141296
1744896809753810000,2.286809814453125,9.241081237792969,1.9076778888702393,-0.06400800496339798
1744896809770620700,2.30362060546875,9.250054359436035,1.960319995880127,-0.16450655460357666
1744896809787429000,2.32042919921875,9.253643035888672,1.975873351097107,-0.3122633695602417
1744896809804245800,2.337245849609375,9.33440113067627,1.9764715433120728,-0.40319061279296875
1744896809821050600,2.354050537109375,9.501300811767578,1.963310956954956,-0.45164528489112854
1744896809837869000,2.370869140625,9.64965534210205,1.9262222051620483,-0.4666004180908203
1744896809854676500,2.387676513671875,9.817750930786133,1.8837496042251587,-0.4289134442806244
1744896809871487200,2.4044873046875,9.875777244567871,1.8263218402862549,-0.36251261830329895
1744896809888299300,2.42129931640625,9.914660453796387,1.80717933177948,-0.28115665912628174
1744896809905104600,2.438104736328125,9.938589096069336,1.8023936748504639,-0.25782662630081177
1744896809921925400,2.45492529296875,9.914660453796387,1.7688941955566406,-0.30568310618400574
1744896809938731300,2.471731201171875,9.829116821289062,1.7395820617675781,-0.30508488416671753
1744896809955522600,2.4885224609375,9.78126049041748,1.7437695264816284,-0.26201409101486206
1744896809972343000,2.505343017578125,9.781859397888184,1.6869399547576904,-0.267397940158844
1744896809989139700,2.5221396484375,9.715457916259766,1.6528422832489014,-0.243469700217247
1744896810005961500,2.53896142578125,9.701699256896973,1.6091731786727905,-0.20997019112110138
1744896810022773800,2.555773681640625,9.716055870056152,1.5858432054519653,-0.2147558331489563
1744896810039583700,2.572583740234375,9.673583984375,1.5284154415130615,-0.243469700217247
1744896810056391400,2.589391357421875,9.673583984375,1.5092729330062866,-0.2584248483181
1744896810073210400,2.60621044921875,9.635298728942871,1.5230315923690796,-0.25782662630081177
1744896810090018000,2.62301806640625,9.53061294555664,1.5272190570831299,-0.243469700217247
1744896810106827800,2.639827880859375,9.487542152404785,1.5607185363769531,-0.20458634197711945
1744896810123626800,2.656626708984375,9.53061294555664,1.5744773149490356,-0.11904292553663254
1744896810140450000,2.673449951171875,9.588040351867676,1.5655041933059692,-0.10468599200248718
1744896810157272300,2.690272216796875,9.621540069580078,1.561316728591919,-0.17168502509593964
1744896810174068700,2.70706884765625,9.659226417541504,1.5565310716629028,-0.25304099917411804
1744896810190884400,2.72388427734375,9.696913719177246,1.5906288623809814,-0.2961117923259735
1744896810207681500,2.740681640625,9.730413436889648,1.6002001762390137,-0.2721835672855377
1744896810224503800,2.75750390625,9.768698692321777,1.5810575485229492,-0.2153540402650833
1744896810241330700,2.77433056640625,9.78843879699707,1.571486234664917,-0.20099709928035736
1744896810258124000,2.7911240234375,9.79262638092041,1.5720844268798828,-0.22971096634864807
1744896810274952400,2.807952392578125,9.797411918640137,1.581655740737915,-0.28175488114356995
1744896810291768800,2.824768798828125,9.78245735168457,1.6151553392410278,-0.32961133122444153
1744896810308557800,2.841557861328125,9.758528709411621,1.6295121908187866,-0.3439682424068451
1744896810325372400,2.858372314453125,9.691530227661133,1.6193426847457886,-0.28175488114356995
1744896810342194200,2.875194091796875,9.644271850585938,1.633101463317871,-0.20518454909324646
1744896810359034000,2.8920341796875,9.649057388305664,1.6378871202468872,-0.21954147517681122
1744896810375819300,2.9088193359375,9.69631576538086,1.6480566263198853,-0.31465616822242737
1744896810392625700,2.925625732421875,9.734002113342285,1.6390835046768188,-0.3768695592880249
1744896810409428500,2.942428466796875,9.729216575622559,1.6295121908187866,-0.36251261830329895
1744896810426236400,2.959236328125,9.644271850585938,1.6145570278167725,-0.28594231605529785
1744896810443062500,2.9760625,9.534799575805664,1.618146300315857,-0.19980068504810333
1744896810459856600,2.992856689453125,9.449256896972656,1.6079767942428589,-0.14715859293937683
1744896810476671200,3.009671142578125,9.501300811767578,1.6079767942428589,-0.17108681797981262
1744896810493480200,3.026480224609375,9.572486877441406,1.5996019840240479,-0.25244277715682983
1744896810510296300,3.04329638671875,9.644271850585938,1.604387640953064,-0.243469700217247
1744896810527105300,3.060105224609375,9.67777156829834,1.6426727771759033,-0.1908276081085205
1744896810543915300,3.076915283203125,9.663414001464844,1.6426727771759033,-0.15732808411121368
1744896810560714500,3.093714599609375,9.65384292602539,1.6522440910339355,-0.14297115802764893
1744896810577537500,3.11053759765625,9.748957633972168,1.6719847917556763,-0.2386840581893921
1744896810594349600,3.127349609375,9.791430473327637,1.6534404754638672,-0.30568310618400574
1744896810611159600,3.14415966796875,9.844670295715332,1.6342978477478027,-0.27696922421455383
1744896810627962400,3.16096240234375,9.811769485473633,1.5864413976669312,-0.22971096634864807
1744896810644779000,3.177779052734375,9.726225852966309,1.604387640953064,-0.16689938306808472
1744896810661600000,3.19460009765625,9.68794059753418,1.604387640953064,-0.17168502509593964
1744896810678404400,3.211404296875,9.668798446655273,1.5996019840240479,-0.19561325013637543
1744896810695228400,3.228228515625,9.644271850585938,1.6091731786727905,-0.24825534224510193
1744896810712043800,3.245043701171875,9.624530792236328,1.6378871202468872,-0.2907279431819916
1744896810728852700,3.261852783203125,9.681360244750977,1.6815561056137085,-0.30508488416671753
1744896810745660400,3.278660400390625,9.67238712310791,1.6618152856826782,-0.2476571500301361
1744896810762460200,3.295460205078125,9.625128746032715,1.6378871202468872,-0.21954147517681122
1744896810779263500,3.312263427734375,9.548559188842773,1.6420745849609375,-0.23808585107326508
1744896810796080000,3.329080078125,9.524032592773438,1.6803597211837769,-0.2476571500301361
1744896810812889300,3.345889404296875,9.567103385925293,1.690529227256775,-0.2667997181415558
1744896810829701400,3.362701416015625,9.638289451599121,1.7001005411148071,-0.2763710021972656
1744896810846532900,3.379532958984375,9.705288887023926,1.6863417625427246,-0.2907279431819916
1744896810863323600,3.39632373046875,9.747760772705078,1.7204394340515137,-0.3433700501918793
1744896810880147200,3.413147216796875,9.723235130310059,1.7539390325546265,-0.39122650027275085
1744896810896949200,3.42994921875,9.694520950317383,1.7874385118484497,-0.4001995921134949
1744896810913772300,3.446772216796875,9.641879081726074,1.7916259765625,-0.36670008301734924
1744896810930589400,3.46358935546875,9.623334884643555,1.7718851566314697,-0.3236292600631714
1744896810947391200,3.48039111328125,9.618548393249512,1.7676976919174194,-0.34277185797691345
1744896810964192800,3.49719287109375,9.642477035522461,1.7533408403396606,-0.36191442608833313
1744896810981003000,3.5140029296875,9.675976753234863,1.72941255569458,-0.36251261830329895
1744896810997804300,3.53080419921875,9.7005033493042,1.6917256116867065,-0.3577269911766052
1744896811014624500,3.54762451171875,9.705288887023926,1.6821542978286743,-0.381655216217041
1744896811031438000,3.56443798828125,9.699904441833496,1.7060825824737549,-0.39122650027275085
1744896811048247300,3.581247314453125,9.723235130310059,1.7491533756256104,-0.4049852192401886
1744896811065056000,3.598055908203125,9.718449592590332,1.7826528549194336,-0.41934216022491455
1744896811081873000,3.614872802734375,9.684351921081543,1.801795482635498,-0.4384847581386566
1744896811098678800,3.6316787109375,9.684351921081543,1.8352949619293213,-0.4331009089946747
1744896811115494100,3.648494140625,9.660423278808594,1.8352949619293213,-0.42831525206565857
1744896811132303600,3.6653037109375,9.598209381103516,1.8203397989273071,-0.4426721930503845
1744896811149100500,3.6821005859375,9.56052303314209,1.8011972904205322,-0.4331009089946747
1744896811165925600,3.698925537109375,9.527023315429688,1.7820546627044678,-0.4331009089946747
1744896811182752800,3.715752685546875,9.494122505187988,1.7766708135604858,-0.42352959513664246
1744896811199546000,3.732546142578125,9.498309135437012,1.7910277843475342,-0.42352959513664246
1744896811216370200,3.7493701171875,9.517452239990234,1.7766708135604858,-0.4331009089946747
1744896811233183500,3.76618359375,9.594022750854492,1.7629120349884033,-0.4145565330982208
1744896811249993700,3.78299365234375,9.651450157165527,1.7491533756256104,-0.42412781715393066
1744896811266805500,3.799805419921875,9.689735412597656,1.7395820617675781,-0.4289134442806244
1744896811283611000,3.81661083984375,9.689735412597656,1.7635103464126587,-0.4289134442806244
1744896811300420000,3.833420166015625,9.665806770324707,1.7778671979904175,-0.41934216022491455
1744896811317238000,3.850238037109375,9.632308006286621,1.7778671979904175,-0.44805604219436646
1744896811334045700,3.867045654296875,9.631709098815918,1.801795482635498,-0.5096712112426758
1744896811350859500,3.883859619140625,9.626325607299805,1.8544375896453857,-0.5623133182525635
1744896811367671800,3.900671875,9.611370086669922,1.8783657550811768,-0.5665007829666138
1744896811384508400,3.91750830078125,9.56889820098877,1.8831514120101929,-0.5282155871391296
1744896811401293800,3.9342939453125,9.521040916442871,1.8729819059371948,-0.5234299302101135
1744896811418104600,3.9511044921875,9.497113227844238,1.8873388767242432,-0.5569294691085815
1744896811434896100,3.967896240234375,9.501300811767578,1.9016958475112915,-0.5712863802909851
1744896811451713500,3.984713623046875,9.525827407836914,1.8921245336532593,-0.5617151260375977
1744896811468524800,4.00152490234375,9.564111709594727,1.8783657550811768,-0.5377869009971619
1744896811485334500,4.01833447265625,9.640682220458984,1.8783657550811768,-0.5240281820297241
1744896811502147000,4.03514697265625,9.640682220458984,1.8263218402862549,-0.5958128571510315
1744896811518957600,4.05195751953125,9.77408218383789,1.841277003288269,-0.5814558863639832
1744896811535768800,4.068768798828125,9.784252166748047,1.7982062101364136,-0.6011967062950134
1744896811552578800,4.085578857421875,9.722038269042969,1.7886348962783813,-0.6293123364448547
1744896811569391000,4.10239111328125,9.640084266662598,1.835893154144287,-0.6245267391204834
1744896811586200800,4.119200927734375,9.56351375579834,1.8789639472961426,-0.6574280261993408
1744896811603009000,4.136009033203125,9.548559188842773,1.8885352611541748,-0.7100701332092285
1744896811619827700,4.15282763671875,9.562915802001953,1.8837496042251587,-0.7004988193511963
1744896811636635100,4.16963525390625,9.616155624389648,1.8652052879333496,-0.6909275650978088
1744896811653445400,4.1864453125,9.610772132873535,1.8789639472961426,-0.6909275650978088
1744896811670260500,4.203260498046875,9.615557670593262,1.9028922319412231,-0.6813562512397766
1744896811687081200,4.220081298828125,9.54377269744873,1.9166508913040161,-0.666999340057373
1744896811703893200,4.236893310546875,9.482157707214355,1.9160526990890503,-0.6185446381568909
1744896811720695600,4.253695556640625,9.496515274047852,1.906481385231018,-0.5760720372200012
1744896811737522700,4.270522705078125,9.511469841003418,1.882553219795227,-0.5234299302101135
1744896811754325500,4.287325439453125,9.573683738708496,1.8729819059371948,-0.47617170214653015
1744896811771137500,4.304137451171875,9.593423843383789,1.8634105920791626,-0.4426721930503845
1744896811787947300,4.320947265625,9.612566947937012,1.8586249351501465,-0.4331009089946747
1744896811804755500,4.33775537109375,9.607781410217285,1.8490537405014038,-0.4139583110809326
1744896811821573600,4.35457373046875,9.602995872497559,1.8394824266433716,-0.4091726839542389
1744896811838382000,4.371382080078125,9.53659439086914,1.8149559497833252,-0.380458801984787
1744896811855187700,4.388187744140625,9.522237777709961,1.8388842344284058,-0.33738797903060913
1744896811871991600,4.404991455078125,9.53659439086914,1.8580267429351807,-0.3517449200153351
1744896811888813600,4.4218134765625,9.598209381103516,1.8915263414382935,-0.3565305769443512
1744896811905625900,4.4386259765625,9.583852767944336,1.9250258207321167,-0.3565305769443512
1744896811922435600,4.455435546875,9.616754531860352,1.9537396430969238,-0.32303106784820557
1744896811939227600,4.4722275390625,9.654440879821777,1.9830517768859863,-0.34217363595962524
1744896811956045000,4.489045166015625,9.626325607299805,1.9878374338150024,-0.3367897868156433
1744896811972856600,4.505856689453125,9.587442398071289,2.0159530639648438,-0.3080759048461914
1744896811989663200,4.522663330078125,9.601799011230469,2.0207388401031494,-0.3080759048461914
1744896812006478600,4.539478515625,9.564111709594727,1.9776679277420044,-0.32243284583091736
1744896812023291400,4.55629150390625,9.607781410217285,1.9154545068740845,-0.34695929288864136
1744896812040100600,4.5731005859375,9.613164901733398,1.8532410860061646,-0.3044866919517517
1744896812056907500,4.589907470703125,9.613762855529785,1.8340985774993896,-0.2470589429140091
1744896812073726000,4.606725830078125,9.609575271606445,1.795215129852295,-0.18963119387626648
1744896812090532600,4.62353271484375,9.628718376159668,1.771286964416504,-0.18065811693668365
1744896812107344600,4.6403447265625,9.628718376159668,1.7718851566314697,-0.2183450609445572
1744896812124151600,4.657151611328125,9.623334884643555,1.7958134412765503,-0.2183450609445572
1744896812140970000,4.673969970703125,9.565906524658203,1.8191434144973755,-0.21355941891670227
1744896812157777200,4.690777099609375,9.513862609863281,1.832902193069458,-0.1944168359041214
1744896812174605800,4.707605712890625,9.498908042907715,1.832902193069458,-0.21774685382843018
1744896812191413200,4.724413330078125,9.522835731506348,1.8239290714263916,-0.26560330390930176
1744896812208224300,4.741224365234375,9.56052303314209,1.8388842344284058,-0.28953152894973755
1744896812225014000,4.758013916015625,9.655637741088867,1.8681962490081787,-0.3188436031341553
1744896812241847600,4.77484765625,9.765707015991211,1.8640087842941284,-0.3188436031341553
1744896812258658600,4.791658447265625,9.851848602294922,1.8592232465744019,-0.3002992272377014
1744896812275479300,4.808479248046875,9.904491424560547,1.8454644680023193,-0.28594231605529785
1744896812292266500,4.8252666015625,9.9140625,1.8406788110733032,-0.30987054109573364
1744896812309082000,4.84208203125,9.856635093688965,1.8598214387893677,-0.3242274820804596
1744896812325901000,4.858901123046875,9.746564865112305,1.8496519327163696,-0.3236292600631714
1744896812342713600,4.875713623046875,9.617950439453125,1.8436698913574219,-0.3188436031341553
1744896812359504600,4.892504638671875,9.493523597717285,1.8335003852844238,-0.33738797903060913
1744896812376337200,4.909337158203125,9.43190860748291,1.8143577575683594,-0.31824541091918945
1744896812393142300,4.926142333984375,9.403793334960938,1.7802600860595703,-0.28953152894973755
1744896812409961500,4.94296142578125,9.446864128112793,1.7521443367004395,-0.2709871530532837
1744896812426764000,4.959763916015625,9.509077072143555,1.7330018281936646,-0.28534409403800964
1744896812443565600,4.976565673828125,9.609575271606445,1.7336000204086304,-0.2667997181415558
1744896812460358000,4.99335791015625,9.686145782470703,1.7389838695526123,-0.2667997181415558
1744896812477191400,5.01019140625,9.742975234985352,1.7485551834106445,-0.2763710021972656
1744896812493998000,5.026998046875,9.828518867492676,1.7635103464126587,-0.31465616822242737
1744896812510796800,5.043796875,9.900303840637207,1.7784653902053833,-0.3433700501918793
1744896812527607000,5.06060693359375,9.866804122924805,1.7688941955566406,-0.3720839321613312
1744896812544432000,5.07743212890625,9.780662536621094,1.7874385118484497,-0.3577269911766052
1744896812561222700,5.09422265625,9.665806770324707,1.8203397989273071,-0.3236292600631714
1744896812578054400,5.111054443359375,9.57487964630127,1.8340985774993896,-0.31345975399017334
1744896812594861300,5.127861328125,9.508479118347168,1.8143577575683594,-0.3086741268634796
1744896812611668000,5.14466796875,9.484550476074219,1.83828604221344,-0.27038896083831787
1744896812628486400,5.161486328125,9.484550476074219,1.8239290714263916,-0.26081767678260803
1744896812645298400,5.17829833984375,9.508479118347168,1.800000786781311,-0.28953152894973755
1744896812662102500,5.1951025390625,9.537193298339844,1.786242127418518,-0.3284149169921875
1744896812678941700,5.211941650390625,9.54197883605957,1.805384635925293,-0.3044866919517517
1744896812695747800,5.228747802734375,9.53779125213623,1.7904295921325684,-0.24227328598499298
1744896812712523300,5.245523193359375,9.561718940734863,1.77607262134552,-0.2183450609445572
1744896812729352700,5.262352783203125,9.647860527038574,1.7718851566314697,-0.24287149310112
1744896812746151700,5.279151611328125,9.776474952697754,1.7778671979904175,-0.3002992272377014
1744896812762974700,5.295974609375,9.818947792053223,1.7778671979904175,-0.3242274820804596
1744896812779786800,5.312786865234375,9.7998046875,1.801795482635498,-0.30508488416671753
1744896812796597000,5.329596923828125,9.742377281188965,1.8442680835723877,-0.28534409403800964
1744896812813412000,5.346412109375,9.665806770324707,1.8346967697143555,-0.3188436031341553
1744896812830232800,5.36323291015625,9.589237213134766,1.8436698913574219,-0.3565305769443512
1744896812847044600,5.380044677734375,9.569496154785156,1.8586249351501465,-0.3852444589138031
1744896812863860000,5.39685986328125,9.55513858795166,1.8586249351501465,-0.3900300860404968
1744896812880667000,5.4136669921875,9.550353050231934,1.867598056793213,-0.3852444589138031
1744896812897447000,5.430447021484375,9.53659439086914,1.848455548286438,-0.33738797903060913
1744896812914289000,5.447288818359375,9.537193298339844,1.8293129205703735,-0.28953152894973755
1744896812931099400,5.464099365234375,9.589237213134766,1.8245272636413574,-0.31405797600746155
1744896812947911200,5.4809111328125,9.541379928588867,1.8293129205703735,-0.3326023519039154
1744896812964700700,5.49770068359375,9.531808853149414,1.8574285507202148,-0.28953152894973755
1744896812981522700,5.514522705078125,9.507881164550781,1.8717855215072632,-0.275174617767334
1744896812998329600,5.53132958984375,9.541379928588867,1.862214207649231,-0.26560330390930176
1744896813015138300,5.54813818359375,9.541379928588867,1.8717855215072632,-0.2560320198535919
1744896813031954700,5.56495458984375,9.598808288574219,1.8580267429351807,-0.2470589429140091
1744896813048764000,5.581763916015625,9.637093544006348,1.8293129205703735,-0.2757728099822998
1744896813065574000,5.598573974609375,9.675378799438477,1.810768485069275,-0.2949153780937195
1744896813082382300,5.61538232421875,9.632905960083008,1.805384635925293,-0.28534409403800964
1744896813099186400,5.6321865234375,9.589835166931152,1.810170292854309,-0.2949153780937195
1744896813116008000,5.649008056640625,9.546764373779297,1.8239290714263916,-0.2709871530532837
1744896813132818000,5.66581787109375,9.5802640914917,1.8293129205703735,-0.2757728099822998
1744896813149647600,5.682647705078125,9.632905960083008,1.8197416067123413,-0.2757728099822998
1744896813166453800,5.699453857421875,9.685547828674316,1.7676976919174194,-0.2476571500301361
1744896813183265500,5.716265625,9.66640567779541,1.781456470489502,-0.24287149310112
1744896813200066800,5.73306689453125,9.642477035522461,1.805384635925293,-0.29012975096702576
1744896813216888300,5.749888427734375,9.622735977172852,1.8293129205703735,-0.2949153780937195
1744896813233698600,5.766698486328125,9.561120986938477,1.8149559497833252,-0.26620152592658997
1744896813250514000,5.783513916015625,9.5324068069458,1.8047864437103271,-0.26620152592658997
1744896813267320600,5.800320556640625,9.54197883605957,1.8095721006393433,-0.24227328598499298
1744896813284132000,5.817132080078125,9.608977317810059,1.810170292854309,-0.23748764395713806
1744896813300942600,5.833942626953125,9.66640567779541,1.7910277843475342,-0.2183450609445572
1744896813317753600,5.850753662109375,9.695717811584473,1.7485551834106445,-0.2189432680606842
1744896813334564000,5.867564208984375,9.714859962463379,1.7629120349884033,-0.2189432680606842
1744896813351377000,5.884376953125,9.719047546386719,1.7868403196334839,-0.22372891008853912
1744896813368186600,5.9011865234375,9.747760772705078,1.7820546627044678,-0.2476571500301361
1744896813384994000,5.917994140625,9.79083251953125,1.7772690057754517,-0.2476571500301361
1744896813401813800,5.934813720703125,9.78664493560791,1.72941255569458,-0.19561325013637543
1744896813418617300,5.951617431640625,9.753743171691895,1.7198412418365479,-0.17168502509593964
1744896813435433700,5.968433837890625,9.710074424743652,1.7198412418365479,-0.20458634197711945
1744896813452226000,5.98522607421875,9.677172660827637,1.714457392692566,-0.1950150430202484
1744896813469032000,6.002031982421875,9.615557670593262,1.6995022296905518,-0.14715859293937683
1744896813485851400,6.018851318359375,9.58205795288086,1.6947166919708252,-0.12323036789894104
1744896813502658000,6.035657958984375,9.600603103637695,1.709073543548584,-0.16151553392410278
1744896813519476500,6.0524765625,9.64367389678955,1.7096717357635498,-0.20458634197711945
1744896813536283600,6.06928369140625,9.7005033493042,1.724626898765564,-0.25722843408584595
1744896813553094700,6.0860947265625,9.728618621826172,1.7485551834106445,-0.28115665912628174
1744896813569906400,6.102906494140625,9.78126049041748,1.7826528549194336,-0.2907279431819916
1744896813586717700,6.1197177734375,9.790233612060547,1.7874385118484497,-0.31465616822242737
1744896813603528000,6.13652783203125,9.77109146118164,1.7922241687774658,-0.33379876613616943
1744896813620339500,6.15333935546875,9.69930648803711,1.8059829473495483,-0.34277185797691345
1744896813637160000,6.170159912109375,9.622735977172852,1.8011972904205322,-0.357128769159317
1744896813653969200,6.18696923828125,9.57069206237793,1.786242127418518,-0.2997010350227356
1744896813670785300,6.203785400390625,9.53360366821289,1.7186448574066162,-0.22791635990142822
1744896813687576600,6.22057666015625,9.562915802001953,1.6755740642547607,-0.20458634197711945
1744896813704412200,6.237412109375,9.639486312866211,1.628315806388855,-0.20997019112110138
1744896813721219600,6.254219482421875,9.69212818145752,1.6091731786727905,-0.1860419660806656
1744896813738008800,6.2710087890625,9.659226417541504,1.604387640953064,-0.1381855010986328
1744896813754843400,6.287843505859375,9.620942115783691,1.6277176141738892,-0.12382857501506805
1744896813771655400,6.304655517578125,9.592227935791016,1.6420745849609375,-0.12861421704292297
1744896813788455400,6.321455322265625,9.601201057434082,1.6516457796096802,-0.17108681797981262
1744896813805270300,6.338270263671875,9.629316329956055,1.6666009426116943,-0.2189432680606842
1744896813822090500,6.355090576171875,9.695717811584473,1.7198412418365479,-0.2667997181415558
1744896813838864400,6.371864501953125,9.728618621826172,1.7437695264816284,-0.30508488416671753
1744896813855713500,6.388713623046875,9.757332801818848,1.7539390325546265,-0.3290131092071533
1744896813872517600,6.405517578125,9.709476470947266,1.7676976919174194,-0.33858439326286316
1744896813889313500,6.4223134765625,9.642477035522461,1.7772690057754517,-0.357128769159317
1744896813906140400,6.439140380859375,9.57069206237793,1.7958134412765503,-0.3188436031341553
1744896813922952700,6.45595263671875,9.57069206237793,1.7670994997024536,-0.31405797600746155
1744896813939745300,6.472745361328125,9.585647583007812,1.7383856773376465,-0.3044866919517517
1744896813956561000,6.489560791015625,9.628120422363281,1.7575281858444214,-0.3044866919517517
1744896813973345000,6.506344970703125,9.642477035522461,1.781456470489502,-0.2949153780937195
1744896813990186000,6.52318603515625,9.637691497802734,1.810170292854309,-0.28534409403800964
1744896814006988000,6.539988037109375,9.608977317810059,1.8149559497833252,-0.29012975096702576
1744896814023791900,6.5567919921875,9.546764373779297,1.8191434144973755,-0.28534409403800964
1744896814040618000,6.573617919921875,9.508479118347168,1.8287147283554077,-0.2512463629245758
1744896814057427000,6.590427001953125,9.57069206237793,1.83828604221344,-0.2183450609445572
1744896814074233900,6.60723388671875,9.68076229095459,1.805384635925293,-0.2470589429140091
1744896814091052000,6.624052001953125,9.829116821289062,1.7826528549194336,-0.25722843408584595
1744896814107859500,6.640859375,9.910472869873047,1.7545372247695923,-0.22911277413368225
1744896814124668400,6.65766845703125,9.881759643554688,1.7539390325546265,-0.20039889216423035
1744896814141501400,6.67450146484375,9.78126049041748,1.7676976919174194,-0.21415762603282928
1744896814158307300,6.691307373046875,9.65683364868164,1.7718851566314697,-0.26620152592658997
1744896814175113200,6.70811328125,9.513862609863281,1.771286964416504,-0.26141586899757385
1744896814191932700,6.7249326171875,9.375677108764648,1.755733609199524,-0.21296121180057526
1744896814208739600,6.741739501953125,9.294321060180664,1.76051926612854,-0.2225325107574463
1744896814225547800,6.7585478515625,9.332008361816406,1.765903115272522,-0.2847459018230438
1744896814242347800,6.77534765625,9.470791816711426,1.7425731420516968,-0.34217363595962524
1744896814259160600,6.79216064453125,9.613762855529785,1.7198412418365479,-0.3810569941997528
1744896814275979000,6.80897900390625,9.704689979553223,1.7252250909805298,-0.381655216217041
1744896814292798500,6.825798583984375,9.704092025756836,1.7730815410614014,-0.37148571014404297
1744896814309603600,6.842603515625,9.641280174255371,1.8442680835723877,-0.37148571014404297
1744896814326419700,6.859419677734375,9.559925079345703,1.9106688499450684,-0.3852444589138031
1744896814343243500,6.876243408203125,9.511469841003418,1.95852530002594,-0.42293140292167664
1744896814360039400,6.893039306640625,9.501300811767578,1.9872392416000366,-0.4701896607875824
1744896814376855300,6.909855224609375,9.525228500366211,1.9926230907440186,-0.4660021960735321
1744896814393655800,6.92665576171875,9.597013473510742,1.9878374338150024,-0.4325026869773865
1744896814410467800,6.9434677734375,9.711869239807129,1.9405791759490967,-0.4043870270252228
1744896814427271000,6.96027099609375,9.812965393066406,1.8646070957183838,-0.3762713670730591
1744896814444079900,6.977079833984375,9.837491989135742,1.811964988708496,-0.39062830805778503
1744896814460879000,6.993879150390625,9.77109146118164,1.7922241687774658,-0.36191442608833313
1744896814477685800,7.010685791015625,9.628120422363281,1.781456470489502,-0.29012975096702576
1744896814494514200,7.02751416015625,9.499505996704102,1.7856439352035522,-0.22791635990142822
1744896814511324400,7.044324462890625,9.422935485839844,1.789831280708313,-0.21774685382843018
1744896814528136400,7.061136474609375,9.42772102355957,1.7850457429885864,-0.2273181527853012
1744896814544943000,7.077943115234375,9.533005714416504,1.7808582782745361,-0.21355941891670227
1744896814561761500,7.094761474609375,9.7005033493042,1.7431713342666626,-0.20458634197711945
1744896814578547500,7.11154736328125,9.81535816192627,1.710868239402771,-0.24825534224510193
1744896814595380500,7.12838037109375,9.857831001281738,1.7252250909805298,-0.24825534224510193
1744896814612188000,7.14518798828125,9.839286804199219,1.7395820617675781,-0.20997019112110138
1744896814629036300,7.162036376953125,9.66221809387207,1.7336000204086304,-0.19980068504810333
1744896814645818000,7.178818115234375,9.42772102355957,1.7850457429885864,-0.24167509377002716
1744896814662646300,7.195646240234375,9.245866775512695,1.846660852432251,-0.26979073882102966
1744896814679435000,7.21243505859375,9.198010444641113,1.8747764825820923,-0.2554338276386261
1744896814696260600,7.229260498046875,9.269196510314941,1.851446509361267,-0.29850462079048157
1744896814713065000,7.24606494140625,9.412766456604004,1.7856439352035522,-0.3517449200153351
1744896814729906700,7.26290673828125,9.5802640914917,1.7527425289154053,-0.357128769159317
1744896814746693000,7.279693115234375,9.738189697265625,1.7012969255447388,-0.3433700501918793
1744896814763504000,7.296504150390625,9.767501831054688,1.667797327041626,-0.3433700501918793
1744896814780312600,7.3133125,9.681360244750977,1.6719847917556763,-0.33858439326286316
1744896814797112300,7.3301123046875,9.523433685302734,1.714457392692566,-0.3188436031341553
1744896814813932500,7.3469326171875,9.289535522460938,1.76051926612854,-0.3038884699344635
1744896814830752800,7.363752685546875,9.126823425292969,1.7982062101364136,-0.3080759048461914
1744896814847558700,7.38055859375,9.073583602905273,1.8029918670654297,-0.3314059376716614
1744896814864371000,7.397370849609375,9.117252349853516,1.7790635824203491,-0.3320041298866272
1744896814881171200,7.414171142578125,9.193822860717773,1.7126628160476685,-0.3415754437446594
1744896814897986600,7.430986572265625,9.32303524017334,1.679761528968811,-0.37088751792907715
1744896814914771700,7.447771728515625,9.437891006469727,1.6618152856826782,-0.39062830805778503
1744896814931601700,7.4646015625,9.46181869506836,1.6474584341049194,-0.36191442608833313
1744896814948414200,7.481414306640625,9.400203704833984,1.6654045581817627,-0.28534409403800964
1744896814965223700,7.4982236328125,9.313464164733887,1.7222341299057007,-0.26081767678260803
1744896814982033700,7.51503369140625,9.250652313232422,1.7796618938446045,-0.32243284583091736
1744896814998845700,7.531845703125,9.278767585754395,1.8137595653533936,-0.3798605799674988
1744896815015656000,7.548656005859375,9.3457670211792,1.8185452222824097,-0.3655036687850952
1744896815032468000,7.565468017578125,9.432506561279297,1.7856439352035522,-0.3086741268634796
1744896815049266400,7.582266357421875,9.514460563659668,1.7377874851226807,-0.2470589429140091
1744896815066090000,7.599090087890625,9.471988677978516,1.6845471858978271,-0.20398813486099243
1744896815082900000,7.61589990234375,9.319445610046387,1.6648063659667969,-0.17527425289154053
1744896815099712300,7.632712158203125,9.142376899719238,1.6827524900436401,-0.1698904037475586
1744896815116526000,7.649526123046875,9.013762474060059,1.6821542978286743,-0.1459621787071228
1744896815133348000,7.66634814453125,8.952147483825684,1.638485312461853,-0.13639089465141296
1744896815150158300,7.683158447265625,9.019146919250488,1.6295121908187866,-0.15553347766399384
1744896815166969600,7.699969482421875,9.157332420349121,1.649253010749817,-0.1986042857170105
1744896815183779800,7.71677978515625,9.305088996887207,1.6504493951797485,-0.20877377688884735
1744896815200592400,7.73359228515625,9.381659507751465,1.6504493951797485,-0.19920247793197632
1744896815217402400,7.75040234375,9.376873970031738,1.6558332443237305,-0.2183450609445572
1744896815234214700,7.767214599609375,9.270991325378418,1.7078771591186523,-0.2560320198535919
1744896815251024400,7.7840244140625,9.160323143005371,1.7407784461975098,-0.29371899366378784
1744896815267836000,7.8008359375,9.083752632141113,1.750349760055542,-0.31764721870422363
1744896815284646400,7.817646484375,9.031110763549805,1.7641085386276245,-0.32243284583091736
1744896815301459000,7.834458984375,9.035896301269531,1.7736797332763672,-0.3128615617752075
1744896815318268200,7.85126806640625,9.078967094421387,1.7736797332763672,-0.26500511169433594
1744896815335076900,7.868076904296875,9.155537605285645,1.755135416984558,-0.26979073882102966
1744896815351897600,7.884897705078125,9.150752067565918,1.7407784461975098,-0.3320041298866272
1744896815368702200,7.9017021484375,9.083752632141113,1.7742780447006226,-0.34576287865638733
1744896815385513200,7.91851318359375,9.002396583557129,1.811964988708496,-0.3361915946006775
1744896815402307300,7.935307373046875,8.992825508117676,1.7928223609924316,-0.3409772217273712
1744896815419109000,7.952109130859375,9.021539688110352,1.7168502807617188,-0.39421752095222473
1744896815435933400,7.968933349609375,9.117850303649902,1.664208173751831,-0.34695929288864136
1744896815452743000,7.985742919921875,9.19980525970459,1.6354942321777344,-0.2560320198535919
1744896815469555200,8.00255517578125,9.229117393493652,1.5876377820968628,-0.18484555184841156
1744896815486362000,8.019362060546875,9.253643035888672,1.5828521251678467,-0.1704886108636856
1744896815503180500,8.0361806640625,9.209376335144043,1.607378602027893,-0.2757728099822998
1744896815519987500,8.052987548828124,9.18006420135498,1.6785650253295898,-0.275174617767334
1744896815536796400,8.06979638671875,9.080163955688477,1.7066807746887207,-0.2554338276386261
1744896815553609500,8.086609375,9.046066284179688,1.7587246894836426,-0.2315055876970291
1744896815570421500,8.10342138671875,9.065208435058594,1.7736797332763672,-0.2602194547653198
1744896815587228200,8.120228271484375,9.17467975616455,1.7694923877716064,-0.3320041298866272
1744896815604050200,8.13705029296875,9.260223388671875,1.7419748306274414,-0.39900317788124084
1744896815620836600,8.153836669921875,9.317651748657227,1.7330018281936646,-0.42352959513664246
1744896815637674800,8.1706748046875,9.30867862701416,1.7084753513336182,-0.3756731450557709
1744896815654493400,8.187493408203125,9.280562400817871,1.679761528968811,-0.31824541091918945
1744896815671302100,8.20430224609375,9.19023323059082,1.6552350521087646,-0.2991028428077698
1744896815688111000,8.221111083984376,9.084351539611816,1.664208173751831,-0.3415754437446594
1744896815704920000,8.237920166015625,8.988637924194336,1.7114664316177368,-0.355932354927063
1744896815721743000,8.2547431640625,8.912068367004395,1.734796404838562,-0.3074777126312256
1744896815738542000,8.2715419921875,8.903095245361328,1.7204394340515137,-0.26919254660606384
1744896815755356400,8.2883564453125,8.96530818939209,1.6965112686157227,-0.2554338276386261
1744896815772171800,8.305171875,9.128020286560059,1.6546368598937988,-0.3038884699344635
1744896815788961300,8.321961181640624,9.262018203735352,1.6121642589569092,-0.3188436031341553
1744896815805790500,8.33879052734375,9.333803176879883,1.588834285736084,-0.2709871530532837
1744896815822599700,8.355599609375,9.329615592956543,1.583450436592102,-0.22791635990142822
1744896815839393300,8.372393310546874,9.248259544372559,1.6169499158859253,-0.22791635990142822
1744896815856225000,8.38922509765625,9.156734466552734,1.6689938306808472,-0.26081767678260803
1744896815873034000,8.406033935546875,9.103493690490723,1.7216359376907349,-0.3032902777194977
1744896815889827000,8.4228271484375,9.074779510498047,1.721037745475769,-0.2841476798057556
1744896815906642700,8.439642578125,9.07537841796875,1.7018951177597046,-0.2745763957500458
1744896815923452400,8.456452392578125,9.146564483642578,1.6737794876098633,-0.34695929288864136
1744896815940261600,8.47326171875,9.22253704071045,1.6791633367538452,-0.3900300860404968
1744896815957075200,8.4900751953125,9.251849174499512,1.6654045581817627,-0.3852444589138031
1744896815973886500,8.506886474609376,9.256634712219238,1.6606189012527466,-0.34695929288864136
1744896815990699800,8.52369970703125,9.208778381347656,1.6366907358169556,-0.39481574296951294
1744896816007509000,8.540509033203126,9.122636795043945,1.6600207090377808,-0.4468596279621124
1744896816024319000,8.557319091796876,9.035896301269531,1.6839489936828613,-0.48035913705825806
1744896816041131000,8.574131103515626,8.983254432678223,1.7072789669036865,-0.46061834692955017
1744896816057941200,8.590941162109376,9.016754150390625,1.7072789669036865,-0.4414757788181305
1744896816074749000,8.6077490234375,9.131608963012695,1.6648063659667969,-0.48035913705825806
1744896816091555800,8.624555908203124,9.236893653869629,1.6564314365386963,-0.5138586759567261
1744896816108392700,8.641392822265624,9.322437286376953,1.657029628753662,-0.5096712112426758
1744896816125195000,8.658195068359374,9.336793899536133,1.685145378112793,-0.47617170214653015
1744896816142012400,8.675012451171876,9.293723106384277,1.689931035041809,-0.48095735907554626
1744896816158823700,8.69182373046875,9.207581520080566,1.7084753513336182,-0.5138586759567261
1744896816175629300,8.70862939453125,9.10229778289795,1.7270197868347168,-0.5180460810661316
1744896816192447000,8.725447021484374,9.025727272033691,1.7461622953414917,-0.503689169883728
1744896816209239000,8.742239013671876,9.030512809753418,1.731805443763733,-0.5084748268127441
1744896816226064000,8.75906396484375,9.08853816986084,1.6839489936828613,-0.5234299302101135
1744896816242846200,8.77584619140625,9.131608963012695,1.6654045581817627,-0.5138586759567261
1744896816259687400,8.7926875,9.150752067565918,1.6462619304656982,-0.5138586759567261
1744896816276496000,8.809495849609375,9.169894218444824,1.6510475873947144,-0.5330012440681458
1744896816293313300,8.826313232421874,9.141180992126465,1.6510475873947144,-0.5473581552505493
1744896816310125800,8.843125732421875,9.069396018981934,1.6408780813217163,-0.5234299302101135
1744896816326927000,8.859927001953125,9.002995491027832,1.6737794876098633,-0.47976094484329224
1744896816343727000,8.87672705078125,9.020941734313965,1.7126628160476685,-0.5324030518531799
1744896816360553700,8.8935537109375,9.125627517700195,1.7467604875564575,-0.5850451588630676
1744896816377348900,8.910348876953124,9.202198028564453,1.7234305143356323,-0.6047859191894531
1744896816394162000,8.927161865234375,9.245268821716309,1.7377874851226807,-0.6047859191894531
1744896816410976800,8.943976806640626,9.254839897155762,1.7336000204086304,-0.6047859191894531
1744896816427781600,8.96078173828125,9.202198028564453,1.7282161712646484,-0.6089733839035034
1744896816444596200,8.97759619140625,9.116654396057129,1.698904037475586,-0.5802595019340515
1744896816461401000,8.994401123046876,9.064610481262207,1.6648063659667969,-0.50907301902771
1744896816478205400,9.011205322265624,9.05563735961914,1.6169499158859253,-0.4660021960735321
1744896816495025000,9.02802490234375,9.108877182006836,1.5738791227340698,-0.45224347710609436
1744896816511843800,9.04484375,9.166305541992188,1.5553346872329712,-0.4666004180908203
1744896816528650200,9.061650146484375,9.204590797424316,1.5553346872329712,-0.4905286431312561
1744896816545462500,9.078462646484375,9.227920532226562,1.5750755071640015,-0.5144568681716919
1744896816562272300,9.095272216796875,9.236893653869629,1.6133606433868408,-0.5431707501411438
1744896816579076000,9.112076171875,9.231510162353516,1.6516457796096802,-0.6047859191894531
1744896816595911700,9.12891162109375,9.216554641723633,1.690529227256775,-0.6526423692703247
1744896816612716800,9.145716796875,9.239884376525879,1.7479569911956787,-0.6951149702072144
1744896816629518800,9.162518798828126,9.253643035888672,1.7575281858444214,-0.6999006271362305
1744896816646343700,9.17934375,9.249456405639648,1.7383856773376465,-0.6711867451667786
1744896816663148000,9.19614794921875,9.254839897155762,1.7288143634796143,-0.6095715761184692
1744896816679974400,9.212974365234375,9.240483283996582,1.7186448574066162,-0.5808576941490173
1744896816696774700,9.229774658203125,9.254839897155762,1.6947166919708252,-0.5808576941490173
1744896816713584000,9.246584228515625,9.293723106384277,1.6713865995407104,-0.5952146053314209
1744896816730398000,9.26339794921875,9.30329418182373,1.6618152856826782,-0.5814558863639832
1744896816747196400,9.280196533203124,9.28893756866455,1.6713865995407104,-0.5623133182525635
1744896816764018700,9.297018798828125,9.308079719543457,1.6564314365386963,-0.5000999569892883
1744896816780817000,9.31381689453125,9.366106033325195,1.6277176141738892,-0.41934216022491455
1744896816797624000,9.3306240234375,9.395418167114258,1.5756736993789673,-0.42412781715393066
1744896816814435600,9.347435546875,9.418747901916504,1.6091731786727905,-0.42412781715393066
1744896816831266300,9.364266357421876,9.418747901916504,1.633101463317871,-0.4145565330982208
1744896816848075000,9.381074951171875,9.366106033325195,1.6564314365386963,-0.36670008301734924
1744896816864865000,9.397864990234375,9.314062118530273,1.6319050788879395,-0.37148571014404297
1744896816881689900,9.41468994140625,9.270991325378418,1.6558332443237305,-0.3756731450557709
1744896816898493400,9.431493408203124,9.270393371582031,1.6941183805465698,-0.34217363595962524
1744896816915301600,9.448301513671876,9.356534957885742,1.7180466651916504,-0.34695929288864136
1744896816932115700,9.46511572265625,9.470791816711426,1.7240287065505981,-0.36191442608833313
1744896816948914700,9.481914794921876,9.565906524658203,1.724626898765564,-0.4145565330982208
1744896816965737700,9.49873779296875,9.608977317810059,1.7581263780593872,-0.4097708761692047
1744896816982536700,9.51553662109375,9.627521514892578,1.7443677186965942,-0.4384847581386566
1744896816999347000,9.532346923828126,9.599406242370605,1.7156537771224976,-0.45284169912338257
1744896817016172000,9.549172119140625,9.561718940734863,1.6815561056137085,-0.44327038526535034
1744896817032982300,9.565982177734375,9.480362892150879,1.6474584341049194,-0.44327038526535034
1744896817049794000,9.5827939453125,9.366106033325195,1.6420745849609375,-0.4049852192401886
1744896817066603800,9.599603759765625,9.270991325378418,1.6271194219589233,-0.357128769159317
1744896817083433200,9.61643310546875,9.209376335144043,1.6121642589569092,-0.30927231907844543
1744896817100248000,9.633248046875,9.205188751220703,1.5930216312408447,-0.29012975096702576
1744896817117064200,9.650064208984375,9.291330337524414,1.583450436592102,-0.2709871530532837
1744896817133862700,9.666862548828124,9.43489933013916,1.5601203441619873,-0.2476571500301361
1744896817150673700,9.683673583984374,9.582656860351562,1.5517455339431763,-0.243469700217247
1744896817167464000,9.7004638671875,9.720842361450195,1.5571293830871582,-0.28175488114356995
1744896817184296000,9.7172958984375,9.801599502563477,1.567897081375122,-0.3487538993358612
1744896817201085700,9.734085693359376,9.882955551147461,1.5966109037399292,-0.3397808074951172
1744896817217905000,9.75090478515625,9.93978500366211,1.5828521251678467,-0.3732803463935852
1744896817234712800,9.767712890625,9.958928108215332,1.6019947528839111,-0.3924229145050049
1744896817251513000,9.78451318359375,9.900901794433594,1.6259230375289917,-0.43489551544189453
1744896817268336600,9.801336669921875,9.829116821289062,1.6450655460357666,-0.4492524564266205
1744896817285145900,9.818145751953125,9.723833084106445,1.649253010749817,-0.486939400434494
1744896817301961700,9.834961669921874,9.66640567779541,1.6773686408996582,-0.4624129831790924
1744896817318782000,9.851781982421874,9.614361763000488,1.6534404754638672,-0.4624129831790924
1744896817335581000,9.868580810546876,9.585647583007812,1.633699655532837,-0.43908295035362244
1744896817352393000,9.88539306640625,9.562317848205566,1.609771490097046,-0.43908295035362244
1744896817369190400,9.9021904296875,9.567103385925293,1.5810575485229492,-0.4534398913383484
1744896817386015200,9.91901513671875,9.601201057434082,1.5385849475860596,-0.4534398913383484
1744896817402825000,9.935824951171876,9.66819953918457,1.490728497505188,-0.43489551544189453
1744896817419637000,9.952636962890624,9.735796928405762,1.4530415534973145,-0.43549370765686035
1744896817436447000,9.969447021484376,9.754940032958984,1.414756417274475,-0.44027936458587646
1744896817453276700,9.986276611328124,9.773484230041504,1.4530415534973145,-0.44027936458587646
1744896817470053400,10.003053466796874,9.806983947753906,1.4919248819351196,-0.44027936458587646
1744896817486881300,10.01988134765625,9.81117057800293,1.511067509651184,-0.4588237404823303
1744896817503691500,10.03669140625,9.777671813964844,1.5541383028030396,-0.46360939741134644
1744896817520503300,10.05350341796875,9.7005033493042,1.6151553392410278,-0.41994038224220276
1744896817537313800,10.070313720703124,9.643074989318848,1.6773686408996582,-0.39601215720176697
1744896817554125300,10.087125244140625,9.590433120727539,1.6719847917556763,-0.4145565330982208
1744896817570939000,10.10393896484375,9.585647583007812,1.643869161605835,-0.4576273262500763
1744896817587761700,10.12076171875,9.600603103637695,1.6103696823120117,-0.43908295035362244
1744896817604539600,10.13753955078125,9.634700775146484,1.5625132322311401,-0.381655216217041
1744896817621383400,10.154383544921876,9.687342643737793,1.5050854682922363,-0.3774677813053131
1744896817638190000,10.171190185546875,9.735796928405762,1.4620146751403809,-0.3684946894645691
1744896817655005400,10.18800537109375,9.778867721557617,1.4530415534973145,-0.363709032535553
1744896817671819500,10.204819580078125,9.731011390686035,1.4476577043533325,-0.349352091550827
1744896817688628000,10.2216279296875,9.664012908935547,1.4811571836471558,-0.3535395562648773
1744896817705437400,10.2384375,9.592227935791016,1.5188441276550293,-0.3678964674472809
1744896817722249700,10.255249755859374,9.52941608428955,1.561316728591919,-0.3529413342475891
1744896817739034000,10.2720341796875,9.519845008850098,1.5900306701660156,-0.39122650027275085
1744896817755874000,10.2888740234375,9.552745819091797,1.6145570278167725,-0.41515472531318665
1744896817772679200,10.30567919921875,9.652647018432617,1.643869161605835,-0.4247260093688965
1744896817789477400,10.322477294921875,9.7005033493042,1.6199408769607544,-0.4342973232269287
1744896817806303700,10.3393037109375,9.738788604736328,1.6013965606689453,-0.4205385744571686
1744896817823112000,10.35611181640625,9.725028991699219,1.5822539329528809,-0.41096729040145874
1744896817839913000,10.372912841796875,9.662816047668457,1.5672988891601562,-0.4007977843284607
1744896817856724500,10.389724365234375,9.596415519714355,1.5619150400161743,-0.3768695592880249
1744896817873534200,10.4065341796875,9.519845008850098,1.5708880424499512,-0.3242274820804596
1744896817890343400,10.423343505859375,9.46301555633545,1.551147222518921,-0.2955136001110077
1744896817907159600,10.44015966796875,9.515657424926758,1.5756736993789673,-0.30987054109573364
1744896817923968500,10.456968505859376,9.601201057434082,1.5756736993789673,-0.31465616822242737
1744896817940794400,10.47379443359375,9.720842361450195,1.552941918373108,-0.30568310618400574
1744896817957601800,10.490601806640624,9.811769485473633,1.5433706045150757,-0.2919243574142456
1744896817974400800,10.50740087890625,9.850054740905762,1.5535401105880737,-0.31106695532798767
1744896817991216400,10.52421630859375,9.844670295715332,1.567897081375122,-0.349352091550827
1744896818008019200,10.541019287109375,9.777671813964844,1.5726827383041382,-0.3774677813053131
1744896818024833800,10.557833740234376,9.701699256896973,1.5672988891601562,-0.3439682424068451
1744896818041646300,10.574646240234374,9.620343208312988,1.5667005777359009,-0.30568310618400574
1744896818058457000,10.59145703125,9.573084831237793,1.5708880424499512,-0.28115665912628174
1744896818075281000,10.608281005859375,9.54377269744873,1.5756736993789673,-0.3290131092071533
1744896818092094200,10.62509423828125,9.548559188842773,1.5619150400161743,-0.3768695592880249
1744896818108880100,10.641880126953126,9.58205795288086,1.5427724123001099,-0.36729827523231506
1744896818125715200,10.658715087890625,9.625128746032715,1.5236297845840454,-0.3678964674472809
1744896818142522000,10.675522216796875,9.66819953918457,1.5146567821502686,-0.41096729040145874
1744896818159321000,10.692321044921876,9.710672378540039,1.5391831398010254,-0.43489551544189453
1744896818176147500,10.7091474609375,9.758528709411621,1.5439687967300415,-0.4540380835533142
1744896818192956200,10.7259560546875,9.777671813964844,1.5445669889450073,-0.47796630859375
1744896818209772000,10.74277197265625,9.78664493560791,1.568495273590088,-0.511465847492218
1744896818226585300,10.75958544921875,9.776474952697754,1.6307085752487183,-0.49651068449020386
1744896818243387100,10.77638720703125,9.78126049041748,1.649253010749817,-0.4486542344093323
1744896818260186600,10.7931865234375,9.743574142456055,1.6205391883850098,-0.4295116662979126
1744896818277013800,10.810013671875,9.686744689941406,1.5912270545959473,-0.43908295035362244
1744896818293817600,10.826817626953124,9.629316329956055,1.5960127115249634,-0.44386860728263855
1744896818310644000,10.84364404296875,9.595816612243652,1.576271891593933,-0.44386860728263855
1744896818327427600,10.860427490234375,9.591629981994629,1.5427724123001099,-0.43908295035362244
1744896818344247000,10.8772470703125,9.644271850585938,1.5050854682922363,-0.4301098585128784
1744896818361040000,10.894039794921875,9.696913719177246,1.4913266897201538,-0.43968117237091064
1744896818377866200,10.9108662109375,9.687342643737793,1.4811571836471558,-0.4253242313861847
1744896818394679000,10.927678955078125,9.664012908935547,1.4763715267181396,-0.3966103494167328
1744896818411487200,10.9444873046875,9.625128746032715,1.5140584707260132,-0.4013960063457489
1744896818428317400,10.9613173828125,9.605986595153809,1.5433706045150757,-0.4342973232269287
1744896818445119700,10.97811962890625,9.624530792236328,1.5864413976669312,-0.4534398913383484
1744896818461922800,10.9949228515625,9.695717811584473,1.6109678745269775,-0.4773681163787842
1744896818478738700,11.01173876953125,9.796216011047363,1.6115660667419434,-0.46839502453804016
1744896818495527200,11.028527099609375,9.839286804199219,1.5876377820968628,-0.46360939741134644
1744896818512354600,11.0453544921875,9.820143699645996,1.592423439025879,-0.4492524564266205
1744896818529153500,11.062153564453125,9.753145217895508,1.6061822175979614,-0.43489551544189453
1744896818545964800,11.07896484375,9.619745254516602,1.6007983684539795,-0.4295116662979126
1744896818562788400,11.095788330078125,9.505488395690918,1.5996019840240479,-0.39122650027275085
1744896818579598800,11.112598876953125,9.438488960266113,1.604387640953064,-0.37148571014404297
1744896818596403700,11.12940380859375,9.424132347106934,1.6037893295288086,-0.3332005441188812
1744896818613238000,11.146238037109375,9.506086349487305,1.561316728591919,-0.3242274820804596
1744896818630042400,11.16304248046875,9.597013473510742,1.5332010984420776,-0.33439695835113525
1744896818646844200,11.17984423828125,9.735198974609375,1.5152549743652344,-0.38225340843200684
1744896818663668500,11.19666845703125,9.854242324829102,1.5158531665802002,-0.40677985548973083
1744896818680478200,11.213478271484375,9.887741088867188,1.534995675086975,-0.397208571434021
1744896818697273900,11.23027392578125,9.887741088867188,1.573280930519104,-0.38703906536102295
1744896818714100500,11.2471005859375,9.820143699645996,1.6013965606689453,-0.39182472229003906
1744896818730911000,11.263910888671875,9.734002113342285,1.643869161605835,-0.39122650027275085
1744896818747724000,11.28072412109375,9.671789169311523,1.6534404754638672,-0.38644084334373474
1744896818764534500,11.297534423828125,9.619745254516602,1.6241283416748047,-0.39122650027275085
1744896818781344800,11.3143447265625,9.552745819091797,1.6145570278167725,-0.3768695592880249
1744896818798144300,11.331144287109375,9.452845573425293,1.618146300315857,-0.3332005441188812
1744896818814953500,11.347953369140624,9.400203704833984,1.6085749864578247,-0.33798620104789734
1744896818831768300,11.364768310546875,9.438488960266113,1.594218134880066,-0.33379876613616943
1744896818848575200,11.3815751953125,9.54377269744873,1.571486234664917,-0.3768695592880249
1744896818865387500,11.398387451171875,9.601201057434082,1.5619150400161743,-0.38644084334373474
1744896818882197200,11.415197265625,9.629914283752441,1.5810575485229492,-0.3529413342475891
1744896818898987300,11.4319873046875,9.725028991699219,1.5912270545959473,-0.31046873331069946
1744896818915836200,11.448836181640624,9.787242889404297,1.5535401105880737,-0.3774677813053131
1744896818932651000,11.465651123046875,9.830313682556152,1.5966109037399292,-0.3678964674472809
1744896818949438500,11.4824384765625,9.810572624206543,1.6301103830337524,-0.3487538993358612
1744896818966254000,11.499254150390625,9.748359680175781,1.6630117893218994,-0.3242274820804596
1744896818983063600,11.5160634765625,9.719645500183105,1.6630117893218994,-0.3194418251514435
1744896818999863300,11.53286328125,9.638289451599121,1.6767704486846924,-0.3529413342475891
1744896819016685600,11.549685546875,9.580862045288086,1.695314884185791,-0.3188436031341553
1744896819033487400,11.5664873046875,9.591031074523926,1.6713865995407104,-0.30987054109573364
1744896819050307800,11.583307861328125,9.64367389678955,1.638485312461853,-0.3433700501918793
1744896819067124500,11.60012451171875,9.691530227661133,1.609771490097046,-0.3152543902397156
1744896819083943700,11.616943603515624,9.696913719177246,1.5810575485229492,-0.2961117923259735
1744896819100737800,11.63373779296875,9.682557106018066,1.5864413976669312,-0.33918261528015137
1744896819117561600,11.6505615234375,9.686744689941406,1.581655740737915,-0.36311084032058716
1744896819134381300,11.66738134765625,9.682557106018066,1.5571293830871582,-0.3152543902397156
1744896819151187700,11.684187744140624,9.611370086669922,1.5134602785110474,-0.2721835672855377
1744896819168000300,11.701000244140625,9.597611427307129,1.5134602785110474,-0.20518454909324646
1744896819184814600,11.717814697265625,9.7064847946167,1.5427724123001099,-0.2961117923259735
1744896819201600500,11.7346005859375,9.705886840820312,1.5672988891601562,-0.3966103494167328
1744896819218427600,11.751427734375,9.681360244750977,1.6295121908187866,-0.4007977843284607
1744896819235228400,11.768228515625,9.704689979553223,1.710868239402771,-0.4295116662979126
1744896819252058400,11.785058349609375,9.69511890411377,1.7204394340515137,-0.3768695592880249
1744896819268866600,11.801866455078125,9.719047546386719,1.6636099815368652,-0.46779683232307434
1744896819285676000,11.818676025390625,9.642477035522461,1.7437695264816284,-0.36670008301734924
1744896819302471200,11.83547119140625,9.595218658447266,1.700698733329773,-0.4049852192401886
1744896819319284700,11.85228466796875,9.604191780090332,1.7527425289154053,-0.33798620104789734
1744896819336096800,11.8690966796875,9.600004196166992,1.6247265338897705,-0.5389832854270935
1744896819352903700,11.885903564453125,9.565906524658203,1.6869399547576904,-0.5198407173156738
1744896819369722400,11.902722412109375,9.504291534423828,1.6713865995407104,-0.44327038526535034
1744896819386529000,11.919529052734376,9.476176261901855,1.633101463317871,-0.3523431420326233
1744896819403357700,11.936357666015626,9.481559753417969,1.6372889280319214,-0.3188436031341553
1744896819420164900,11.953164794921875,9.480961799621582,1.633101463317871,-0.3810569941997528
1744896819436973300,11.969973388671875,9.509077072143555,1.662413477897644,-0.42412781715393066
1744896819453773300,11.986773193359374,9.599406242370605,1.672582983970642,-0.4576273262500763
1744896819470585000,12.003585205078124,9.718449592590332,1.7114664316177368,-0.4863412082195282
1744896819487396900,12.02039697265625,9.804591178894043,1.7312071323394775,-0.46779683232307434
1744896819504205800,12.037205810546874,9.814162254333496,1.7066807746887207,-0.43908295035362244
1744896819521017300,12.054017333984374,9.761520385742188,1.740180253982544,-0.4007977843284607
1744896819537829400,12.070829345703125,9.708877563476562,1.7730815410614014,-0.34277185797691345
1744896819554639600,12.0876396484375,9.65683364868164,1.7820546627044678,-0.2997010350227356
1744896819571451600,12.10445166015625,9.600004196166992,1.7431713342666626,-0.2757728099822998
1744896819588279300,12.121279296875,9.466604232788086,1.7330018281936646,-0.2470589429140091
1744896819605083400,12.13808349609375,9.395418167114258,1.7030915021896362,-0.18005990982055664
1744896819621922000,12.154922119140625,9.376873970031738,1.6648063659667969,-0.09451649338006973
1744896819638709200,12.171709228515626,9.354142189025879,1.5780665874481201,-0.06580262631177902
1744896819655515600,12.188515625,9.358927726745605,1.5780665874481201,-0.02273181453347206
1744896819672336100,12.205336181640625,9.445069313049316,1.6067804098129272,0.05802594870328903
1744896819689121500,12.22212158203125,9.492925643920898,1.6163517236709595,0.048454657196998596
1744896819705957400,12.238957275390625,9.646066665649414,1.6223337650299072,0.08614161610603333
1744896819722757400,12.25575732421875,9.851250648498535,1.6516457796096802,0.10049854964017868
1744896819739559400,12.272559326171875,10.04267692565918,1.5810575485229492,0.05623133108019829
1744896819756384000,12.289384033203126,10.076175689697266,1.5146567821502686,0.05144568532705307
1744896819773199400,12.306199462890625,10.033703804016113,1.4620146751403809,0.046061836183071136
1744896819789990700,12.32299072265625,9.938589096069336,1.4135600328445435,0.04187439754605293
1744896819806806300,12.33980615234375,9.877572059631348,1.327418327331543,0.012562318705022335
1744896819823603500,12.356603515625,9.80100154876709,1.2460623979568481,-0.10169496387243271
1744896819840428300,12.37342822265625,9.734002113342285,1.2077772617340088,-0.21655045449733734
1744896819857235000,12.39023486328125,9.68076229095459,1.222732424736023,-0.30209386348724365
1744896819874054000,12.407053955078124,9.628120422363281,1.222732424736023,-0.388235479593277
1744896819890877700,12.423877685546875,9.531808853149414,1.2747762203216553,-0.44027936458587646
1744896819907682600,12.4406826171875,9.497113227844238,1.394417405128479,-0.44446679949760437
1744896819924500000,12.4575,9.519845008850098,1.5002998113632202,-0.5300102233886719
1744896819941291000,12.474291015625,9.637691497802734,1.597209095954895,-0.649053156375885
1744896819958104300,12.491104248046875,9.760921478271484,1.6552350521087646,-0.7304090857505798
1744896819974913500,12.50791357421875,9.841679573059082,1.7084753513336182,-0.7256234884262085
1744896819991726600,12.5247265625,9.937392234802246,1.7186448574066162,-0.6783652305603027
1744896820008541700,12.541541748046875,9.966704368591309,1.6941183805465698,-0.5970092415809631
1744896820025348600,12.5583486328125,9.896116256713867,1.6265212297439575,-0.5210371017456055
1744896820042161000,12.575160888671874,9.805787086486816,1.5780665874481201,-0.43489551544189453
1744896820058959600,12.591959716796875,9.634700775146484,1.5242279767990112,-0.3774677813053131
1744896820075782700,12.60878271484375,9.525827407836914,1.470389485359192,-0.2913261651992798
1744896820092606500,12.6256064453125,9.440881729125977,1.4267204999923706,-0.23389841616153717
1744896820109407700,12.64240771484375,9.427123069763184,1.368694543838501,-0.20099709928035736
1744896820126228700,12.659228759765625,9.494122505187988,1.350150227546692,-0.19621145725250244
1744896820143041000,12.676041015625,9.604191780090332,1.3316057920455933,-0.2063809484243393
1744896820159841800,12.692841796875,9.708877563476562,1.3513466119766235,-0.17766708135604858
1744896820176662800,12.709662841796876,9.794421195983887,1.3950155973434448,-0.19680966436862946
1744896820193469200,12.72646923828125,9.827322959899902,1.466800332069397,-0.22552353143692017
1744896820210289000,12.743288818359375,9.811769485473633,1.5337992906570435,-0.2679961323738098
1744896820227094800,12.7600947265625,9.844670295715332,1.591825246810913,-0.3152543902397156
1744896820243906800,12.77690673828125,9.868000984191895,1.6013965606689453,-0.3535395562648773
1744896820260700700,12.79370068359375,9.873384475708008,1.6013965606689453,-0.31106695532798767
1744896820277512200,12.81051220703125,9.768698692321777,1.5720844268798828,-0.2721835672855377
1744896820294322200,12.827322265625,9.663414001464844,1.5906288623809814,-0.28654050827026367
1744896820311140600,12.844140625,9.58205795288086,1.5708880424499512,-0.31465616822242737
1744896820327949300,12.86094921875,9.57787036895752,1.5469598770141602,-0.3200400173664093
1744896820344752400,12.87775244140625,9.549755096435547,1.475175142288208,-0.27696922421455383
1744896820361575000,12.894574951171874,9.507282257080078,1.46500563621521,-0.22432711720466614
1744896820378398700,12.911398681640625,9.459425926208496,1.5026925802230835,-0.1908276081085205
1744896820395184600,12.9281845703125,9.454042434692383,1.5314065217971802,-0.1860419660806656
1744896820412002300,12.945002197265625,9.511469841003418,1.5176477432250977,-0.19561325013637543
1744896820428798200,12.961798095703125,9.56471061706543,1.4937195777893066,-0.20039889216423035
1744896820445630200,12.978630126953124,9.631111145019531,1.5134602785110474,-0.16271193325519562
1744896820462424800,12.9954248046875,9.678967475891113,1.5517455339431763,-0.12442677468061447
1744896820479235800,13.01223583984375,9.769296646118164,1.552343726158142,-0.14356936514377594
1744896820496045800,13.0290458984375,9.873982429504395,1.552941918373108,-0.20099709928035736
1744896820512870400,13.045870361328125,9.936196327209473,1.5439687967300415,-0.22492532432079315
1744896820529677600,13.062677490234375,9.917651176452637,1.5391831398010254,-0.20159530639648438
1744896820546494700,13.07949462890625,9.81236743927002,1.5242279767990112,-0.1866401731967926
1744896820563302100,13.09630224609375,9.698110580444336,1.5086746215820312,-0.11964113265275955
1744896820580117500,13.113117431640624,9.589237213134766,1.4793626070022583,-0.09571290761232376
1744896820596918500,13.12991845703125,9.518050193786621,1.435693621635437,-0.09092725813388824
1744896820613752800,13.1467529296875,9.470193862915039,1.4213366508483887,-0.11485548317432404
1744896820630556700,13.163556640625,9.503094673156738,1.435693621635437,-0.13878370821475983
1744896820647375400,13.180375244140626,9.569496154785156,1.4416756629943848,-0.19621145725250244
1744896820664169000,13.1971689453125,9.693922996520996,1.461416482925415,-0.17706887423992157
1744896820680990700,13.21399072265625,9.698708534240723,1.4416756629943848,-0.12921242415905
1744896820697791500,13.23079150390625,9.717252731323242,1.4997016191482544,-0.2153540402650833
1744896820714616300,13.2476162109375,9.702896118164062,1.5278172492980957,-0.16749759018421173
1744896820731426800,13.2644267578125,9.765109062194824,1.5332010984420776,-0.1579262912273407
1744896820748238300,13.28123828125,9.798608779907227,1.4997016191482544,-0.16749759018421173
1744896820765028000,13.298028076171875,9.851250648498535,1.5098711252212524,-0.129810631275177
1744896820781849600,13.314849609375,9.837491989135742,1.4662020206451416,-0.11545369029045105
1744896820798656800,13.33165673828125,9.756135940551758,1.461416482925415,-0.12502498924732208
1744896820815468800,13.34846875,9.631709098815918,1.4841482639312744,-0.11006984114646912
1744896820832279300,13.365279296875,9.598808288574219,1.4931213855743408,-0.038285162299871445
1744896820849080600,13.38208056640625,9.585049629211426,1.459621787071228,0.02392822690308094
1744896820865919000,13.3989189453125,9.613762855529785,1.430907964706421,0.023330021649599075
1744896820882726400,13.415726318359376,9.637093544006348,1.441077470779419,-0.03409772366285324
1744896820899523000,13.432523193359375,9.6795654296875,1.451246976852417,-0.13878370821475983
1744896820916348700,13.4493486328125,9.6795654296875,1.451246976852417,-0.17228323221206665
1744896820933122600,13.46612255859375,9.626923561096191,1.4943177700042725,-0.15314064919948578
1744896820949955800,13.482955810546875,9.621540069580078,1.5134602785110474,-0.18125630915164948
1744896820966767400,13.499767333984375,9.616155624389648,1.537388563156128,-0.22911277413368225
1744896820983579600,13.51657958984375,9.683155059814453,1.4997016191482544,-0.2727817893028259
1744896821000377000,13.533377197265626,9.726225852966309,1.5098711252212524,-0.3152543902397156
1744896821017201200,13.550201171875,9.730413436889648,1.5242279767990112,-0.32961133122444153
1744896821034000100,13.567000244140624,9.716055870056152,1.5290136337280273,-0.32961133122444153
1744896821050805000,13.583804931640625,9.68794059753418,1.5379867553710938,-0.267397940158844
1744896821067634000,13.600634033203125,9.674181938171387,1.485344648361206,-0.2153540402650833
1744896821084463000,13.617463134765625,9.617352485656738,1.4416756629943848,-0.19621145725250244
1744896821101267700,13.634267822265626,9.641280174255371,1.456032633781433,-0.16271193325519562
1744896821118081000,13.6510810546875,9.637093544006348,1.4464613199234009,-0.12442677468061447
1744896821134886100,13.66788623046875,9.598808288574219,1.4368900060653687,-0.14835500717163086
1744896821151706400,13.684706298828125,9.593423843383789,1.4943177700042725,-0.17168502509593964
1744896821168513800,13.701513671875,9.626325607299805,1.5326029062271118,-0.2147558331489563
1744896821185322200,13.718322265625,9.750154495239258,1.5236297845840454,-0.20099709928035736
1744896821202139000,13.735138916015625,9.851250648498535,1.4715858697891235,-0.17766708135604858
1744896821218936800,13.751936767578124,9.812965393066406,1.4715858697891235,-0.25363919138908386
1744896821235757800,13.7687578125,9.811769485473633,1.5242279767990112,-0.28235307335853577
1744896821252552700,13.785552734375,9.750154495239258,1.490728497505188,-0.2871387302875519
1744896821269356300,13.802356201171875,9.732208251953125,1.4327025413513184,-0.2153540402650833
1744896821286178000,13.819177978515626,9.732806205749512,1.4039887189865112,-0.17288143932819366
1744896821302988000,13.835988037109376,9.680164337158203,1.451246976852417,-0.11006984114646912
1744896821319800300,13.85280029296875,9.6466646194458,1.332203984260559,-0.29730820655822754
1744896821336610000,13.869610107421876,9.593423843383789,1.4273186922073364,-0.22971096634864807
1744896821353439500,13.886439453125,9.541379928588867,1.445863127708435,-0.17706887423992157
1744896821370246000,13.903245849609375,9.527023315429688,1.3651052713394165,-0.24406790733337402
1744896821387058200,13.92005810546875,9.55513858795166,1.4321043491363525,-0.27696922421455383
1744896821403868200,13.9368681640625,9.587442398071289,1.4901303052902222,-0.33918261528015137
1744896821420663000,13.9536630859375,9.664012908935547,1.5092729330062866,-0.2961117923259735
1744896821437476400,13.970476318359376,9.717252731323242,1.48055899143219,-0.22971096634864807
1744896821454288400,13.987288330078124,9.774680137634277,1.4620146751403809,-0.25363919138908386
1744896821471098600,14.0040986328125,9.789037704467773,1.4476577043533325,-0.31106695532798767
1744896821487910700,14.02091064453125,9.81236743927002,1.4530415534973145,-0.33499518036842346
1744896821504717300,14.03771728515625,9.865608215332031,1.3860424757003784,-0.32602208852767944
1744896821521532700,14.05453271484375,9.842875480651855,1.3142578601837158,-0.2548356056213379
1744896821538346000,14.071345947265625,9.80518913269043,1.2705888748168945,-0.2021935135126114
1744896821555152000,14.08815185546875,9.762716293334961,1.236491084098816,-0.15912270545959473
1744896821571968000,14.104968017578125,9.667601585388184,1.207179069519043,-0.12083754688501358
1744896821588794000,14.121794189453125,9.600603103637695,1.2113664150238037,-0.11605189740657806
1744896821605600500,14.1386005859375,9.524032592773438,1.2496516704559326,-0.16331014037132263
1744896821622389200,14.15538916015625,9.489934921264648,1.3214362859725952,-0.19621145725250244
1744896821639213300,14.17221337890625,9.493523597717285,1.3692927360534668,-0.2392822653055191
1744896821656030700,14.18903076171875,9.569496154785156,1.4321043491363525,-0.25363919138908386
1744896821672855800,14.205855712890624,9.693324089050293,1.4524433612823486,-0.30628129839897156
1744896821689651200,14.222651123046875,9.78843879699707,1.4530415534973145,-0.363709032535553
1744896821706467300,14.23946728515625,9.841081619262695,1.4584254026412964,-0.3684946894645691
1744896821723278600,14.256278564453124,9.832108497619629,1.4243277311325073,-0.33020952343940735
1744896821740072000,14.273072021484374,9.7998046875,1.3423734903335571,-0.25423741340637207
1744896821756884700,14.289884765625,9.733404159545898,1.2939188480377197,-0.16869398951530457
1744896821773700400,14.306700439453126,9.695717811584473,1.317248821258545,-0.09690931439399719
1744896821790509600,14.323509521484375,9.65803050994873,1.316650629043579,-0.005982056725770235
1744896821807319800,14.34031982421875,9.663414001464844,1.2729816436767578,0.0849452018737793
1744896821824131800,14.3571318359375,9.597013473510742,1.2251251935958862,0.08973085135221481
1744896821840959000,14.373958984375,9.553942680358887,1.210768222808838,0.05144568532705307
1744896821857763800,14.390763916015626,9.586843490600586,1.2448660135269165,-0.039481572806835175
1744896821874581200,14.407581298828125,9.625128746032715,1.1832507848739624,-0.1256231814622879
1744896821891390000,14.424389892578125,9.783055305480957,1.1838489770889282,-0.07836493849754333
1744896821908179500,14.441179443359376,9.854840278625488,1.1030912399291992,-0.17946170270442963
1744896821924998400,14.457998291015626,9.963713645935059,1.1377872228622437,-0.24167509377002716
1744896821941810400,14.474810546875,10.010972023010254,1.1431710720062256,-0.355932354927063
1744896821958618000,14.4916181640625,9.986445426940918,1.153340458869934,-0.42771705985069275
1744896821975430100,14.50843017578125,9.847661972045898,1.181456208229065,-0.4701896607875824
1744896821992242200,14.5252421875,9.693922996520996,1.2287144660949707,-0.5509474277496338
1744896822009042200,14.542042236328125,9.592825889587402,1.3381860256195068,-0.5880361795425415
1744896822025864400,14.558864501953124,9.534799575805664,1.3854442834854126,-0.6071787476539612
1744896822042674400,14.57567431640625,9.491728782653809,1.428515076637268,-0.5874379873275757
1744896822059486500,14.592486572265624,9.519845008850098,1.4763715267181396,-0.5778666734695435
1744896822076296700,14.609296630859374,9.625128746032715,1.4482558965682983,-0.5593222975730896
1744896822093121800,14.626121826171875,9.721440315246582,1.3956137895584106,-0.48813581466674805
1744896822109936000,14.64293603515625,9.789037704467773,1.3627125024795532,-0.45942193269729614
1744896822126744300,14.659744384765625,9.827322959899902,1.3387842178344727,-0.4504488706588745
1744896822143554600,14.676554443359375,9.836894035339355,1.3052847385406494,-0.45523449778556824
1744896822160377600,14.693377685546874,9.857233047485352,1.2430713176727295,-0.40319061279296875
1744896822177181000,14.710180908203125,9.838688850402832,1.189831018447876,-0.3361915946006775
1744896822193984800,14.72698486328125,9.805787086486816,1.1515458822250366,-0.3122633695602417
1744896822210802400,14.743802490234375,9.729216575622559,1.1324033737182617,-0.35054850578308105
1744896822227580400,14.760580322265625,9.595218658447266,1.1174482107162476,-0.4265206456184387
1744896822244406500,14.777406494140624,9.470791816711426,1.1407781839370728,-0.46002015471458435
1744896822261213200,14.794213134765625,9.403793334960938,1.1072787046432495,-0.5264210104942322
1744896822278028500,14.811028564453125,9.399007797241211,1.069591760635376,-0.6029912829399109
1744896822294838000,14.827838134765624,9.57069206237793,1.0995019674301147,-0.6747759580612183
1744896822311654100,14.844654052734375,9.608977317810059,1.0618150234222412,-0.7232306599617004
1744896822328476000,14.861475830078126,9.746564865112305,1.1054840087890625,-0.737587571144104
1744896822345286700,14.87828662109375,9.798608779907227,1.2011969089508057,-0.7040880918502808
1744896822362087200,14.895087158203125,9.845867156982422,1.2490534782409668,-0.6658028960227966
1744896822378878200,14.911878173828125,9.831509590148926,1.28255295753479,-0.6083751320838928
1744896822395714600,14.928714599609375,9.836296081542969,1.339382529258728,-0.5886343717575073
1744896822412520400,14.9455205078125,9.855438232421875,1.3298112154006958,-0.5790630578994751
1744896822429315000,14.962315185546874,9.817152976989746,1.296311616897583,-0.5988038778305054
1744896822446141700,14.9791416015625,9.779465675354004,1.2819547653198242,-0.5796613097190857
1744896822462938000,14.995938232421874,9.746564865112305,1.2861422300338745,-0.49351966381073
1744896822479748600,15.01274853515625,9.728020668029785,1.2185449600219727,-0.4217349886894226
1744896822496560600,15.029560546875,9.695717811584473,1.1467602252960205,-0.3888336718082428
1744896822513383400,15.046383544921875,9.677172660827637,1.079761266708374,-0.3936193287372589
1744896822530181000,15.06318115234375,9.67777156829834,1.0552347898483276,-0.364905446767807
1744896822547007000,15.080007080078126,9.687342643737793,1.0462616682052612,-0.364905446767807
1744896822563817700,15.096817626953126,9.715457916259766,1.079761266708374,-0.3601198196411133
1744896822580644600,15.11364453125,9.724431037902832,1.1132607460021973,-0.3840480446815491
1744896822597452300,15.130452392578125,9.728618621826172,1.165902853012085,-0.40319061279296875
1744896822614263000,15.147262939453125,9.742377281188965,1.2185449600219727,-0.43130627274513245
1744896822631071500,15.164071533203124,9.760921478271484,1.2664014101028442,-0.43609192967414856
1744896822647889400,15.180889404296876,9.751350402832031,1.2759727239608765,-0.4265206456184387
1744896822664675600,15.197675537109374,9.70349407196045,1.2951152324676514,-0.41216370463371277
1744896822681539600,15.21453955078125,9.66520881652832,1.3040883541107178,-0.4163511395454407
1744896822698306600,15.231306640625,9.660423278808594,1.3280165195465088,-0.4259224236011505
1744896822715106800,15.24810693359375,9.70349407196045,1.3142578601837158,-0.4450650215148926
1744896822731921700,15.264921630859375,9.746564865112305,1.2999008893966675,-0.43609192967414856
1744896822748731600,15.281731689453125,9.760921478271484,1.2951152324676514,-0.388235479593277
1744896822765553400,15.298553466796875,9.804591178894043,1.2759727239608765,-0.3643072545528412
1744896822782360000,15.315360107421874,9.852447509765625,1.2382856607437134,-0.3409772217273712
1744896822799163400,15.332163330078124,9.833903312683105,1.2095718383789062,-0.3409772217273712
1744896822815987000,15.348987060546875,9.857831001281738,1.2281162738800049,-0.32183465361595154
1744896822832796000,15.3657958984375,9.795618057250977,1.2376874685287476,-0.2835494875907898
1744896822849614000,15.382614013671875,9.81954574584961,1.2472587823867798,-0.2835494875907898
1744896822866434000,15.39943408203125,9.847661972045898,1.2759727239608765,-0.2883351147174835
1744896822883240200,15.416240234375,9.871589660644531,1.2759727239608765,-0.2883351147174835
1744896822900035000,15.43303515625,9.914660453796387,1.2861422300338745,-0.2787638306617737
1744896822916848600,15.4498486328125,9.966704368591309,1.290927767753601,-0.29790642857551575
1744896822933640000,15.466639892578126,10.02413272857666,1.296311616897583,-0.35533416271209717
1744896822950470700,15.483470703125,10.05703353881836,1.3112667798995972,-0.37926238775253296
1744896822967282700,15.50028271484375,10.037891387939453,1.3256237506866455,-0.3936193287372589
1744896822984093200,15.51709326171875,10.00439167022705,1.3537393808364868,-0.3696911036968231
1744896823000904700,15.53390478515625,9.994820594787598,1.3441680669784546,-0.3696911036968231
1744896823017714700,15.550714599609375,10.009177207946777,1.339382529258728,-0.3840480446815491
1744896823034534700,15.56753466796875,10.013962745666504,1.3106685876846313,-0.37926238775253296
1744896823051337200,15.584337158203125,9.957133293151855,1.2867404222488403,-0.35054850578308105
1744896823068149000,15.60114892578125,9.919445991516113,1.2526426315307617,-0.3409772217273712
1744896823084972800,15.617972900390624,9.881160736083984,1.2239288091659546,-0.3409772217273712
1744896823101788700,15.63478857421875,9.90568733215332,1.195214867591858,-0.3361915946006775
1744896823118594800,15.6515947265625,9.92961597442627,1.1670992374420166,-0.37507495284080505
1744896823135397400,15.6683974609375,9.963115692138672,1.1670992374420166,-0.37028929591178894
1744896823152211700,15.685211669921875,10.029516220092773,1.181456208229065,-0.34636107087135315
1744896823169033700,15.70203369140625,10.115657806396484,1.196411371231079,-0.3655036687850952
1744896823185839400,15.71883935546875,10.168299674987793,1.1874382495880127,-0.37088751792907715
1744896823202634000,15.735634033203125,10.15872859954834,1.1635099649429321,-0.36610186100006104
1744896823219447600,15.752447509765625,10.153943061828613,1.1635099649429321,-0.3517449200153351
1744896823236259600,15.769259521484376,10.14018440246582,1.1581261157989502,-0.3326023519039154
1744896823253069800,15.78606982421875,10.168299674987793,1.1682956218719482,-0.3565305769443512
1744896823269881600,15.802881591796876,10.249655723571777,1.1353943347930908,-0.4091726839542389
1744896823286692000,15.819692138671876,10.235299110412598,1.1018948554992676,-0.4049852192401886
1744896823303520500,15.8365205078125,10.225728034973145,1.1300104856491089,-0.380458801984787
1744896823320328200,15.853328125,10.259825706481934,1.1066805124282837,-0.3762713670730591
1744896823337132500,15.870132568359375,10.307083129882812,1.0971091985702515,-0.4049852192401886
1744896823353939700,15.886939697265625,10.29751205444336,1.064207911491394,-0.45284169912338257
1744896823370761700,15.90376171875,10.302896499633789,1.073180913925171,-0.4001995921134949
1744896823387554600,15.920554443359375,10.322038650512695,1.077966570854187,-0.36670008301734924
1744896823404370000,15.937369873046874,10.336395263671875,1.0785647630691528,-0.39062830805778503
1744896823421180000,15.954179931640626,10.364511489868164,1.088136076927185,-0.4049852192401886
1744896823437992000,15.970991943359374,10.331011772155762,1.0929217338562012,-0.39541393518447876
1744896823454790100,15.9877900390625,10.302896499633789,1.073180913925171,-0.3236292600631714
1744896823471613400,16.004613525390624,10.289137840270996,1.0630114078521729,-0.25722843408584595
1744896823488424400,16.021424560546876,10.246665000915527,1.043868899345398,-0.2470589429140091
1744896823505236200,16.038236328125,10.217352867126465,1.0767701864242554,-0.26620152592658997
1744896823522046500,16.05504638671875,10.207182884216309,1.1108678579330444,-0.28534409403800964
1744896823538858500,16.0718583984375,10.221540451049805,1.1012966632843018,-0.2949153780937195
1744896823555668500,16.08866845703125,10.207182884216309,1.1102696657180786,-0.2805584669113159
1744896823572480500,16.10548046875,10.29332447052002,1.134796142578125,-0.2949153780937195
1744896823589291300,16.122291259765625,10.364511489868164,1.1497513055801392,-0.3236292600631714
1744896823606116400,16.139116455078124,10.440483093261719,1.1694921255111694,-0.31405797600746155
1744896823622906000,16.155906005859375,10.450055122375488,1.174277663230896,-0.2997010350227356
1744896823639723800,16.172723876953125,10.412367820739746,1.1647064685821533,-0.30927231907844543
1744896823656529400,16.189529296875,10.354341506958008,1.1784651279449463,-0.3523431420326233
1744896823673347800,16.206347900390625,10.230513572692871,1.164108157157898,-0.3756731450557709
1744896823690156500,16.223156494140625,10.082756042480469,1.1629117727279663,-0.34636107087135315
1744896823706968800,16.23996875,9.973284721374512,1.1479566097259521,-0.3032902777194977
1744896823723775700,16.256775634765624,9.90149974822998,1.1282159090042114,-0.2745763957500458
1744896823740590800,16.2735908203125,9.868000984191895,1.1276177167892456,-0.2841476798057556
1744896823757399600,16.290399658203125,9.824930191040039,1.1228320598602295,-0.32721850275993347
1744896823774201300,16.307201416015626,9.972088813781738,1.181456208229065,-0.4181457459926605
1744896823791040000,16.3240400390625,10.201201438903809,1.1312068700790405,-0.5670989751815796
1744896823807849000,16.340848876953125,10.344770431518555,1.0606186389923096,-0.6484549641609192
1744896823824659200,16.3576591796875,10.420742988586426,1.1419745683670044,-0.529412031173706
1744896823841482000,16.37448193359375,10.468599319458008,1.1653046607971191,-0.4289134442806244
1744896823858277000,16.391277099609376,10.506884574890137,1.1802598237991333,-0.4624129831790924
1744896823875076900,16.408076904296873,10.563115119934082,1.2047861814498901,-0.5533402562141418
1744896823891892500,16.424892578125,10.710872650146484,1.2394821643829346,-0.5629115104675293
1744896823908701400,16.441701416015626,10.76949691772461,1.1575279235839844,-0.4295116662979126
1744896823925508400,16.45850830078125,10.627123832702637,1.1324033737182617,-0.2955136001110077
1744896823942326300,16.475326171875,10.398011207580566,1.1976077556610107,-0.2566302418708801
1744896823959120400,16.492120361328126,10.029516220092773,1.2813565731048584,-0.21236300468444824
1744896823975956000,16.5089560546875,9.918848037719727,1.3525429964065552,-0.21176479756832123
1744896823992753000,16.5257529296875,9.961918830871582,1.3058829307556152,-0.364905446767807
1744896824009573400,16.542573486328124,10.009177207946777,1.301695466041565,-0.40319061279296875
1744896824026377200,16.559377197265626,10.028918266296387,1.2675977945327759,-0.34576287865638733
1744896824043190000,16.57618994140625,10.019346237182617,1.3202399015426636,-0.27397820353507996
1744896824059999700,16.592999755859374,10.00439167022705,1.3441680669784546,-0.364905446767807
1744896824076811300,16.609811279296874,10.02293586730957,1.34476637840271,-0.4414757788181305
1744896824093638400,16.626638427734374,10.194621086120605,1.384247899055481,-0.4654040038585663
1744896824110449000,16.643448974609374,10.186843872070312,1.2496516704559326,-0.3607180118560791
1744896824127258000,16.660258056640625,10.301101684570312,1.3214362859725952,-0.23210379481315613
1744896824144078800,16.677078857421876,10.3016996383667,1.292722463607788,-0.24167509377002716
1744896824160883500,16.693883544921874,10.28195858001709,1.3597214221954346,-0.23629122972488403
1744896824177674800,16.7106748046875,10.309475898742676,1.3794622421264648,-0.37028929591178894
1744896824194488000,16.727488037109374,10.275378227233887,1.4135600328445435,-0.4893322288990021
1744896824211297300,16.74429736328125,10.217950820922852,1.4321043491363525,-0.45104706287384033
1744896824228113400,16.761113525390623,10.118050575256348,1.4075778722763062,-0.4695914387702942
1744896824244919000,16.7779189453125,10.15155029296875,1.430907964706421,-0.3888336718082428
1744896824261718500,16.794718505859375,10.103693962097168,1.397408366203308,-0.4127618968486786
1744896824278561300,16.811561279296875,10.085148811340332,1.3926228284835815,-0.3936193287372589
1744896824295368200,16.8283681640625,10.142577171325684,1.373480200767517,-0.35533416271209717
1744896824312177700,16.845177734375,10.252646446228027,1.3597214221954346,-0.3846462368965149
1744896824328977200,16.86197705078125,10.357931137084961,1.3028919696807861,-0.3613162338733673
1744896824345801500,16.878801513671874,10.381858825683594,1.3226326704025269,-0.3852444589138031
1744896824362594000,16.895593994140626,10.366904258728027,1.3800604343414307,-0.389431893825531
1744896824379411000,16.912410888671875,10.319047927856445,1.3794622421264648,-0.3655036687850952
1744896824396215300,16.92921533203125,10.262218475341797,1.4123635292053223,-0.2793620526790619
1744896824413038300,16.946038330078125,10.223933219909668,1.3926228284835815,-0.2267199456691742
1744896824429838300,16.96283837890625,10.14736270904541,1.4069796800613403,-0.26919254660606384
1744896824446659300,16.979659423828124,10.04148006439209,1.4590235948562622,-0.3451646566390991
1744896824463468300,16.99646826171875,9.979267120361328,1.5020943880081177,-0.3595215976238251
1744896824480266800,17.013266845703125,10.02712345123291,1.4590235948562622,-0.32602208852767944
1744896824497087000,17.0300869140625,10.104291915893555,1.3830515146255493,-0.3314059376716614
1744896824513899300,17.046899169921875,10.25743293762207,1.3555340766906738,-0.37028929591178894
1744896824530711300,17.063711181640624,10.276575088500977,1.317248821258545,-0.4325026869773865
1744896824547521000,17.08052099609375,10.247262954711914,1.3316057920455933,-0.4468596279621124
1744896824564331300,17.097331298828124,10.204790115356445,1.3453645706176758,-0.42711883783340454
1744896824581160200,17.11416015625,10.200004577636719,1.3453645706176758,-0.4223332107067108
1744896824597971500,17.130971435546876,10.113862991333008,1.368694543838501,-0.3696911036968231
1744896824614775300,17.147775390625,10.03729248046875,1.4063814878463745,-0.29312077164649963
1744896824631611400,17.164611328125,9.974481582641602,1.4775680303573608,-0.3164508044719696
1744896824648400600,17.181400634765627,9.950552940368652,1.44945228099823,-0.40737804770469666
1744896824665194000,17.198194091796875,9.926624298095703,1.425524115562439,-0.4217349886894226
1744896824681996800,17.214996826171873,9.960722923278809,1.4063814878463745,-0.3643072545528412
1744896824698815500,17.2318154296875,10.03729248046875,1.3776676654815674,-0.34576287865638733
1744896824715631900,17.2486318359375,10.071390151977539,1.3543375730514526,-0.3601198196411133
1744896824732441600,17.265441650390624,10.089935302734375,1.3591232299804688,-0.3601198196411133
1744896824749241300,17.282241455078125,10.023533821105957,1.3537393808364868,-0.3601198196411133
1744896824766081000,17.2990810546875,9.951749801635742,1.3770694732666016,-0.3643072545528412
1744896824782878500,17.31587841796875,9.91286563873291,1.4105689525604248,-0.3451646566390991
1744896824799683000,17.33268310546875,9.841081619262695,1.4009976387023926,-0.41156548261642456
1744896824816523500,17.3495234375,9.79801082611084,1.414756417274475,-0.40677985548973083
1744896824833340000,17.36633984375,9.81236743927002,1.3962119817733765,-0.43549370765686035
1744896824850134000,17.383134033203124,9.88415241241455,1.420140266418457,-0.4211367964744568
1744896824866926600,17.399926513671875,9.93679428100586,1.415354609489441,-0.37866419553756714
1744896824883742000,17.416741943359376,10.022337913513184,1.4350954294204712,-0.3643072545528412
1744896824900552200,17.43355224609375,10.02712345123291,1.4350954294204712,-0.37866419553756714
1744896824917364000,17.450364013671877,9.993623733520508,1.4446666240692139,-0.43609192967414856
1744896824934167800,17.467167724609375,9.873982429504395,1.4817553758621216,-0.349352091550827
1744896824950986200,17.483986328125,9.783653259277344,1.472184181213379,-0.363709032535553
1744896824967813000,17.500813232421876,9.735198974609375,1.49611234664917,-0.4061816334724426
1744896824984605000,17.51760498046875,9.754341125488281,1.4913266897201538,-0.41575294733047485
1744896825001418500,17.53441845703125,9.888937950134277,1.444068431854248,-0.3403790295124054
1744896825018230500,17.55123046875,9.994221687316895,1.3872389793395996,-0.3314059376716614
1744896825035024100,17.568024169921873,10.047462463378906,1.3776676654815674,-0.3074777126312256
1744896825051846700,17.5848466796875,9.970891952514648,1.3962119817733765,-0.27397820353507996
1744896825068662500,17.60166259765625,9.827322959899902,1.423729419708252,-0.23988047242164612
1744896825085491700,17.61849169921875,9.722636222839355,1.4135600328445435,-0.21595224738121033
1744896825102282000,17.635281982421876,9.727422714233398,1.4087743759155273,-0.19680966436862946
1744896825119083500,17.65208349609375,9.77527904510498,1.404586911201477,-0.23988047242164612
1744896825135891700,17.6688916015625,9.812965393066406,1.3908281326293945,-0.2925225794315338
1744896825152713500,17.68571337890625,9.81236743927002,1.4620146751403809,-0.27756741642951965
1744896825169531100,17.70253125,9.707681655883789,1.4524433612823486,-0.33020952343940735
1744896825186341400,17.71934130859375,9.654440879821777,1.4949159622192383,-0.32961133122444153
1744896825203151600,17.736151611328125,9.631111145019531,1.4757733345031738,-0.3248256742954254
1744896825219962400,17.75296240234375,9.597611427307129,1.4662020206451416,-0.3487538993358612
1744896825236773000,17.769773193359374,9.573084831237793,1.485344648361206,-0.4205385744571686
1744896825253594400,17.786594482421876,9.567103385925293,1.5433706045150757,-0.4773681163787842
1744896825270416400,17.80341650390625,9.66819953918457,1.5242279767990112,-0.4205385744571686
1744896825287221500,17.820221435546873,9.731011390686035,1.466800332069397,-0.38285163044929504
1744896825304030700,17.83703076171875,9.81236743927002,1.472184181213379,-0.32542386651039124
1744896825320843500,17.853843505859373,9.793225288391113,1.472184181213379,-0.349352091550827
1744896825337639400,17.870639404296874,9.68794059753418,1.4949159622192383,-0.28175488114356995
1744896825354448000,17.88744775390625,9.644869804382324,1.5140584707260132,-0.28175488114356995
1744896825371261700,17.90426171875,9.573084831237793,1.4997016191482544,-0.3152543902397156
1744896825388074000,17.921073974609374,9.534799575805664,1.5182459354400635,-0.3290131092071533
1744896825404882000,17.9378818359375,9.429515838623047,1.5278172492980957,-0.39122650027275085
1744896825421697800,17.95469775390625,9.376873970031738,1.5655041933059692,-0.37148571014404297
1744896825438505700,17.971505615234374,9.458230018615723,1.5326029062271118,-0.381655216217041
1744896825455331000,17.9883310546875,9.601799011230469,1.5188441276550293,-0.3535395562648773
1744896825472146200,18.005146240234374,9.65384292602539,1.5050854682922363,-0.41096729040145874
1744896825488923100,18.021923095703126,9.659226417541504,1.495514154434204,-0.3774677813053131
1744896825505750300,18.038750244140626,9.644869804382324,1.5236297845840454,-0.25782662630081177
1744896825522561800,18.055561767578126,9.76391315460205,1.5194423198699951,-0.3158525824546814
1744896825539359200,18.072359130859375,9.721440315246582,1.4578272104263306,-0.4019941985607147
1744896825556184300,18.089184326171875,9.687342643737793,1.5194423198699951,-0.36311084032058716
1744896825572994000,18.105994140625,9.610772132873535,1.5667005777359009,-0.39601215720176697
1744896825589823500,18.122823486328127,9.614959716796875,1.6145570278167725,-0.4055834412574768
1744896825606630400,18.13963037109375,9.64367389678955,1.5960127115249634,-0.38644084334373474
1744896825623442000,18.15644189453125,9.720842361450195,1.5625132322311401,-0.33918261528015137
1744896825640235000,18.173235107421874,9.720842361450195,1.5433706045150757,-0.38703906536102295
1744896825657054200,18.19005419921875,9.710672378540039,1.576870083808899,-0.39182472229003906
1744896825673856800,18.206856689453126,9.744172096252441,1.581655740737915,-0.3439682424068451
1744896825690672400,18.22367236328125,9.88415241241455,1.4727823734283447,-0.33499518036842346
1744896825707483000,18.24048291015625,10.013364791870117,1.439282774925232,-0.2925225794315338
1744896825724294400,18.25729443359375,9.941579818725586,1.4344971179962158,-0.3068794906139374
1744896825741121800,18.274121826171875,9.735796928405762,1.4763715267181396,-0.31106695532798767
1744896825757893400,18.290893310546874,9.559326171875,1.5134602785110474,-0.25782662630081177
1744896825774742000,18.307741943359375,9.516255378723145,1.4608181715011597,-0.3152543902397156
1744896825791554600,18.324554443359375,9.53061294555664,1.4518451690673828,-0.3678964674472809
1744896825808357000,18.341357177734373,9.553942680358887,1.4715858697891235,-0.4582255482673645
1744896825825170400,18.35817041015625,9.634700775146484,1.490728497505188,-0.4253242313861847
1744896825841971700,18.3749716796875,9.721440315246582,1.414756417274475,-0.4450650215148926
1744896825858765800,18.391765869140624,9.865009307861328,1.3298112154006958,-0.5222335457801819
1744896825875597300,18.408597412109376,10.152148246765137,1.3878371715545654,-0.3361915946006775
1744896825892405200,18.4254052734375,10.214960098266602,1.3543375730514526,-0.2554338276386261
1744896825909202400,18.442202392578125,10.009177207946777,1.4578272104263306,-0.13998012244701385
1744896825926027300,18.45902734375,9.593423843383789,1.4416756629943848,-0.24885354936122894
1744896825942854000,18.47585400390625,9.34875774383545,1.545763373374939,-0.25244277715682983
1744896825959642400,18.492642333984374,9.229117393493652,1.5547364950180054,-0.3475574851036072
1744896825976470800,18.509470703125,9.329017639160156,1.536790370941162,-0.3858426511287689
1744896825993263600,18.526263671875,9.616754531860352,1.4039887189865112,-0.3684946894645691
1744896826010079200,18.543079345703124,9.799206733703613,1.2717852592468262,-0.41216370463371277
1744896826026893800,18.559893798828124,9.7998046875,1.2855439186096191,-0.3595215976238251
1744896826043703300,18.576703369140624,9.794421195983887,1.3142578601837158,-0.388235479593277
1744896826060515600,18.593515625,9.808777809143066,1.262213945388794,-0.45523449778556824
1744896826077329200,18.6103291015625,9.960722923278809,1.3728820085525513,-0.41216370463371277
