time,seconds_elapsed,z,y,x
1746620228248689200,0.131689208984375,-0.26151180267333984,-0.8502683639526367,0.24158555269241333
1746620228265504300,0.148504150390625,0.29306793212890625,-0.892574667930603,0.23073694109916687
1746620228282324500,0.165324462890625,0.7004938125610352,-0.9791287183761597,0.1886480748653412
1746620228299135000,0.182135009765625,0.925389289855957,-1.0061160326004028,0.1684245467185974
1746620228315937300,0.198937255859375,1.1058349609375,-1.0064678192138672,0.19815057516098022
1746620228332748500,0.21574853515625,1.261861801147461,-0.9671082496643066,0.24474060535430908
1746620228349556000,0.232555908203125,1.2050485610961914,-0.994792103767395,0.21533548831939697
1746620228366360800,0.24936083984375,1.0004491806030273,-0.9505152702331543,0.29202282428741455
1746620228383176200,0.26617626953125,0.7960977554321289,-0.933000922203064,0.33219653367996216
1746620228399995100,0.2829951171875,0.4658021926879883,-0.9217275381088257,0.28748053312301636
1746620228416808700,0.29980859375,0.12157821655273438,-0.8880964517593384,0.2872893810272217
1746620228433593000,0.316593017578125,-0.10451507568359375,-0.8722341060638428,0.1985974907875061
1746620228450402800,0.33340283203125,-0.19330883026123047,-0.7912026643753052,0.4404267370700836
1746620228467211800,0.350211669921875,-0.17029285430908203,-0.7061775922775269,0.6874593496322632
1746620228484023600,0.3670234375,-0.22997379302978516,-0.7217565774917603,0.7412121295928955
1746620228500829000,0.383828857421875,-0.3344573974609375,-0.775875449180603,0.5663354396820068
1746620228517644000,0.40064404296875,-0.23232460021972656,-0.7336940765380859,0.47384917736053467
1746620228534449000,0.417448974609375,0.09715747833251953,-0.8076025247573853,0.3402026891708374
1746620228551257300,0.43425732421875,0.24146747589111328,-0.8405554294586182,0.39945054054260254
1746620228568070100,0.451070068359375,0.1081247329711914,-0.8973561525344849,0.27336591482162476
1746620228584884000,0.467884033203125,-0.007470130920410156,-0.708572268486023,0.48615485429763794
1746620228601692000,0.48469189453125,0.0108795166015625,-0.7151778936386108,0.5957944393157959
1746620228618513700,0.501513671875,0.10431575775146484,-0.7908307313919067,0.48105329275131226
1746620228635293200,0.518293212890625,0.19760894775390625,-0.817467212677002,0.3716887831687927
1746620228652121900,0.535121826171875,0.16094303131103516,-0.7657718658447266,0.34895241260528564
1746620228668914400,0.55191455078125,0.05287456512451172,-0.7152056694030762,0.4569733738899231
1746620228685725700,0.5687255859375,0.09607982635498047,-0.6691591739654541,0.49942106008529663
1746620228702534000,0.585533935546875,0.11510276794433594,-0.6870765686035156,0.5363812446594238
1746620228719330600,0.60233056640625,0.16387176513671875,-0.6888511180877686,0.6044521331787109
1746620228736147200,0.619147216796875,0.21714401245117188,-0.6852048635482788,0.5767136812210083
1746620228752962800,0.635962890625,0.18489646911621094,-0.7394132614135742,0.4900341033935547
1746620228769768000,0.652767822265625,0.1483020782470703,-0.7479838132858276,0.43713778257369995
1746620228786576600,0.66957666015625,0.11179542541503906,-0.7535686492919922,0.3856939673423767
1746620228803384600,0.686384521484375,0.1617746353149414,-0.7884293794631958,0.40992414951324463
1746620228820193000,0.703193115234375,0.17276668548583984,-0.786878228187561,0.43692660331726074
1746620228837001500,0.72000146484375,0.17004013061523438,-0.7761512994766235,0.3945876359939575
1746620228853827300,0.736827392578125,0.0865926742553711,-0.7531695365905762,0.3233414888381958
1746620228870616000,0.753615966796875,0.08391952514648438,-0.7183754444122314,0.3016602396965027
1746620228887441000,0.77044091796875,0.12018013000488281,-0.7490179538726807,0.33128875494003296
1746620228904232400,0.787232421875,0.16954612731933594,-0.7352454662322998,0.3771195411682129
1746620228921057800,0.804057861328125,0.23710346221923828,-0.6977282762527466,0.39024490118026733
1746620228937849000,0.82084912109375,0.26282787322998047,-0.6864088773727417,0.39847779273986816
1746620228954660900,0.837660888671875,0.22295570373535156,-0.6792260408401489,0.3937831521034241
1746620228971467800,0.8544677734375,0.1781015396118164,-0.6583551168441772,0.40458381175994873
1746620228988278000,0.871278076171875,0.18558025360107422,-0.6839989423751831,0.37686771154403687
1746620229005068500,0.888068603515625,0.2697477340698242,-0.7309980392456055,0.43533289432525635
1746620229021887000,0.904886962890625,0.353271484375,-0.7247844934463501,0.41241055727005005
1746620229038703400,0.921703369140625,0.4041318893432617,-0.7374861240386963,0.3921792507171631
1746620229055512300,0.93851220703125,0.29336071014404297,-0.7282471656799316,0.39115846157073975
1746620229072323800,0.95532373046875,0.1648855209350586,-0.7517135143280029,0.3654273748397827
1746620229089157400,0.972157470703125,0.13149356842041016,-0.7706032991409302,0.3963111639022827
1746620229105934300,0.988934326171875,0.17488384246826172,-0.7840303182601929,0.3658984303474426
1746620229122759700,1.005759765625,0.09474372863769531,-0.7876675128936768,0.3234339952468872
1746620229139551200,1.02255126953125,-0.03755664825439453,-0.7788517475128174,0.3240705728530884
1746620229156376600,1.03937646484375,-0.10388469696044922,-0.7462409734725952,0.3093096613883972
1746620229173167600,1.056167724609375,-0.023734092712402344,-0.7484915256500244,0.33060938119888306
1746620229189979400,1.0729794921875,0.14113903045654297,-0.7711353302001953,0.32441890239715576
1746620229206788600,1.08978857421875,0.3238821029663086,-0.7398684024810791,0.28725045919418335
1746620229223596300,1.10659619140625,0.4230537414550781,-0.7425005435943604,0.24392986297607422
1746620229240405200,1.1234052734375,0.40391063690185547,-0.7345170974731445,0.2089555859565735
1746620229257213700,1.140213623046875,0.2680635452270508,-0.7438609600067139,0.22815358638763428
1746620229274021600,1.157021728515625,0.0989847183227539,-0.7140066623687744,0.23511743545532227
1746620229290830600,1.17383056640625,-0.05082130432128906,-0.7160590887069702,0.2741019129753113
1746620229307639000,1.19063916015625,-0.07840824127197266,-0.715935230255127,0.25132322311401367
1746620229324447500,1.207447509765625,0.0220489501953125,-0.7707928419113159,0.31556397676467896
1746620229341242400,1.224242431640625,0.1073770523071289,-0.8277525901794434,0.3648316264152527
1746620229358067500,1.2410673828125,0.2019338607788086,-0.8226304054260254,0.41088610887527466
1746620229374908700,1.25790869140625,0.14426708221435547,-0.8130521774291992,0.4623953104019165
1746620229391682300,1.274682373046875,0.058907508850097656,-0.7790001630783081,0.4910393953323364
1746620229408489500,1.291489501953125,-0.08303260803222656,-0.7551441192626953,0.5371487140655518
1746620229425294800,1.308294921875,-0.1403360366821289,-0.7398791313171387,0.5274835824966431
1746620229442110000,1.32510986328125,-0.07145500183105469,-0.6955889463424683,0.46492230892181396
1746620229458915600,1.34191552734375,0.054701805114746094,-0.685560941696167,0.4548446238040924
1746620229475723500,1.3587236328125,0.18087387084960938,-0.7047421932220459,0.5058212280273438
1746620229492526800,1.37552685546875,0.21221256256103516,-0.73779296875,0.47681355476379395
1746620229509334300,1.392334228515625,0.1635141372680664,-0.7406923770904541,0.4765390157699585
1746620229526149600,1.409149658203125,0.09975528717041016,-0.7060579061508179,0.4939371943473816
1746620229542956500,1.42595654296875,0.0736684799194336,-0.6869755983352661,0.477923721075058
1746620229559784200,1.4427841796875,0.10398101806640625,-0.6706565618515015,0.46653252840042114
1746620229576588300,1.45958837890625,0.13486385345458984,-0.672561526298523,0.43142953515052795
1746620229593394200,1.476394287109375,0.14682769775390625,-0.6810121536254883,0.43908819556236267
1746620229610180400,1.493180419921875,0.12632179260253906,-0.6874048709869385,0.45005300641059875
1746620229627014000,1.510013916015625,0.053101539611816406,-0.6733442544937134,0.46986111998558044
1746620229643822600,1.526822509765625,-0.04902362823486328,-0.6493932008743286,0.4649476110935211
1746620229660631000,1.543631103515625,-0.06126117706298828,-0.6683950424194336,0.40975406765937805
1746620229677439000,1.56043896484375,0.083343505859375,-0.6803641319274902,0.36435526609420776
1746620229694248200,1.577248291015625,0.27042484283447266,-0.6981334686279297,0.3538113832473755
1746620229711078400,1.594078369140625,0.39995384216308594,-0.6937307119369507,0.35504645109176636
1746620229727848000,1.610847900390625,0.5121955871582031,-0.6670477390289307,0.32295656204223633
1746620229744659200,1.6276591796875,0.4628324508666992,-0.6302812099456787,0.3487281799316406
1746620229761468200,1.64446826171875,0.32984161376953125,-0.5910259485244751,0.37213248014450073
1746620229778276600,1.661276611328125,0.18663883209228516,-0.5680583715438843,0.31960660219192505
1746620229795082200,1.678082275390625,0.09716796875,-0.5729060173034668,0.3533502221107483
1746620229811896300,1.694896240234375,0.1399555206298828,-0.5639785528182983,0.34456294775009155
1746620229828702000,1.711701904296875,0.21193218231201172,-0.5975862741470337,0.31163257360458374
1746620229845510700,1.7285107421875,0.23230648040771484,-0.6492668390274048,0.3097085952758789
1746620229862332400,1.74533251953125,0.14813899993896484,-0.6478484869003296,0.34730738401412964
1746620229879162000,1.762162109375,0.10114479064941406,-0.6228002309799194,0.3701334595680237
1746620229895949000,1.778948974609375,0.11730098724365234,-0.6580162048339844,0.42652592062950134
1746620229912761300,1.79576123046875,0.11439037322998047,-0.708128809928894,0.42446383833885193
1746620229929547500,1.812547607421875,0.03432178497314453,-0.7066597938537598,0.4561408758163452
1746620229946378500,1.82937841796875,-0.026358604431152344,-0.6936964988708496,0.48753494024276733
1746620229963166500,1.84616650390625,0.006560325622558594,-0.6995536088943481,0.4566066265106201
1746620229979978200,1.862978271484375,0.12546253204345703,-0.7146432399749756,0.43507012724876404
1746620229996787000,1.879786865234375,0.23967933654785156,-0.7629568576812744,0.44530344009399414
1746620230013595000,1.896594970703125,0.26369190216064453,-0.761852502822876,0.43434247374534607
1746620230030400800,1.91340087890625,0.22141075134277344,-0.7407358884811401,0.4278321862220764
1746620230047202800,1.930202880859375,0.1366443634033203,-0.7188229560852051,0.4100450277328491
1746620230064038100,1.9470380859375,0.09989643096923828,-0.7031519412994385,0.4296286404132843
1746620230080825600,1.96382568359375,0.08712291717529297,-0.7197638750076294,0.4312821924686432
1746620230097642500,1.980642578125,0.06482791900634766,-0.7160652875900269,0.4264680743217468
1746620230114446300,1.9974462890625,0.06994819641113281,-0.6682394742965698,0.3797626495361328
1746620230131250000,2.01425,0.01867961883544922,-0.6725096702575684,0.3665909767150879
1746620230148064500,2.031064453125,0.02964305877685547,-0.7080338001251221,0.3652629852294922
1746620230164873000,2.047873046875,0.0870370864868164,-0.7110046148300171,0.34366363286972046
1746620230181696300,2.0646962890625,0.1678915023803711,-0.708324670791626,0.39072537422180176
1746620230198486300,2.081486328125,0.29166316986083984,-0.6992514133453369,0.43149054050445557
1746620230215293400,2.09829345703125,0.3413887023925781,-0.7104408740997314,0.47405773401260376
1746620230232104200,2.115104248046875,0.3102436065673828,-0.6861021518707275,0.46044427156448364
1746620230248915500,2.13191552734375,0.2282419204711914,-0.6820051670074463,0.4084136188030243
1746620230265723000,2.148722900390625,0.09384346008300781,-0.6811412572860718,0.4113523066043854
1746620230282530800,2.16553076171875,-0.017156600952148438,-0.6775306463241577,0.4267338216304779
1746620230299327000,2.182326904296875,-0.10967063903808594,-0.6871631145477295,0.4759654700756073
1746620230316148000,2.19914794921875,-0.14203166961669922,-0.6743732690811157,0.48439788818359375
1746620230332943400,2.215943359375,-0.0762472152709961,-0.6709002256393433,0.46948978304862976
1746620230349764900,2.232764892578125,0.05060386657714844,-0.6567354202270508,0.43741941452026367
1746620230366585600,2.249585693359375,0.09721565246582031,-0.684578537940979,0.4068267047405243
1746620230383394300,2.266394287109375,0.07092952728271484,-0.6563311815261841,0.3561813235282898
1746620230400194600,2.283194580078125,0.026076316833496094,-0.6616411209106445,0.33854782581329346
1746620230417012500,2.300012451171875,0.08168506622314453,-0.6507515907287598,0.36633139848709106
1746620230433807000,2.31680712890625,0.1329669952392578,-0.6313464641571045,0.369099497795105
1746620230450599200,2.33359912109375,0.12717437744140625,-0.6376007795333862,0.31766319274902344
1746620230467427600,2.350427490234375,0.07346725463867188,-0.6172034740447998,0.32582682371139526
1746620230484229600,2.367229736328125,0.06639289855957031,-0.5892574787139893,0.346432626247406
1746620230501041200,2.384041259765625,0.15047168731689453,-0.582150936126709,0.35887032747268677
1746620230517850400,2.400850341796875,0.20586776733398438,-0.5948196649551392,0.34268712997436523
1746620230534658300,2.417658203125,0.25744056701660156,-0.5992099046707153,0.3938022255897522
1746620230551483100,2.434483154296875,0.22291088104248047,-0.586872935295105,0.3942779302597046
1746620230568285000,2.451284912109375,0.16481971740722656,-0.5725868940353394,0.3739640712738037
1746620230585098200,2.46809814453125,0.09734630584716797,-0.5510650873184204,0.38963985443115234
1746620230601909800,2.48490966796875,0.05365943908691406,-0.5426845550537109,0.39077597856521606
1746620230618692900,2.50169287109375,0.08600425720214844,-0.5655155181884766,0.39109891653060913
1746620230635523600,2.518523681640625,0.19940185546875,-0.5719808340072632,0.36665040254592896
1746620230652320000,2.535320068359375,0.22698688507080078,-0.6234742403030396,0.35645705461502075
1746620230669154000,2.552154052734375,0.19339275360107422,-0.6404292583465576,0.3789675235748291
1746620230685931800,2.568931884765625,0.11153316497802734,-0.6390670537948608,0.39216703176498413
1746620230702743800,2.585743896484375,0.07258987426757812,-0.6264866590499878,0.3819943070411682
1746620230719535000,2.60253515625,0.07178211212158203,-0.6225215196609497,0.3722200393676758
1746620230736363300,2.61936328125,0.07579517364501953,-0.6040034294128418,0.4014837145805359
1746620230753168100,2.636168212890625,0.03729534149169922,-0.6241797208786011,0.4211267828941345
1746620230769973800,2.652973876953125,-0.0261993408203125,-0.6033810377120972,0.3976902961730957
1746620230786788900,2.669788818359375,-0.05206489562988281,-0.5793299674987793,0.39735227823257446
1746620230803596800,2.6865966796875,-0.11207103729248047,-0.5798999071121216,0.4332074224948883
1746620230820396300,2.703396240234375,-0.13007545471191406,-0.6431010961532593,0.26299768686294556
1746620230837214000,2.7202138671875,-0.12454795837402344,-0.6796135902404785,0.33513909578323364
1746620230854026200,2.737026123046875,0.04526996612548828,-0.6417093276977539,0.2845514416694641
1746620230870845200,2.75384521484375,0.2776927947998047,-0.6563485860824585,0.3011398911476135
1746620230887646500,2.770646484375,0.4493379592895508,-0.6851366758346558,0.3587080240249634
1746620230904462600,2.787462646484375,0.47509288787841797,-0.6469693183898926,0.37335336208343506
1746620230921258800,2.8042587890625,0.3504161834716797,-0.6538969278335571,0.3704875111579895
1746620230938083800,2.821083740234375,0.23548603057861328,-0.6263344287872314,0.38847023248672485
1746620230954862800,2.83786279296875,0.15395832061767578,-0.6270245313644409,0.41045081615448
1746620230971669500,2.85466943359375,0.13965797424316406,-0.650242805480957,0.39655786752700806
1746620230988474000,2.87147412109375,0.15798377990722656,-0.6534745693206787,0.4243756830692291
1746620231005293800,2.8882939453125,0.18120861053466797,-0.6610476970672607,0.38718509674072266
1746620231022102300,2.905102294921875,0.27655887603759766,-0.6930221319198608,0.3450753688812256
1746620231038916900,2.921916748046875,0.1814098358154297,-0.6802889108657837,0.40836387872695923
1746620231055730200,2.938730224609375,0.039246559143066406,-0.6424033641815186,0.37821102142333984
1746620231072547000,2.955547119140625,-0.06487083435058594,-0.6317023038864136,0.36625492572784424
1746620231089331200,2.972331298828125,-0.04072856903076172,-0.6150710582733154,0.3829246163368225
1746620231106164500,2.98916455078125,-0.012446403503417969,-0.6232180595397949,0.4049457013607025
1746620231122967800,3.0059677734375,0.044211387634277344,-0.6292040348052979,0.3688853979110718
1746620231139758000,3.022758056640625,0.10555458068847656,-0.6254794597625732,0.3995266258716583
1746620231156575000,3.039574951171875,0.18564510345458984,-0.6447584629058838,0.3319358229637146
1746620231173380400,3.05638037109375,0.22841644287109375,-0.6912099123001099,0.2680327296257019
1746620231190176000,3.073176025390625,0.16629409790039062,-0.6898607015609741,0.25401443243026733
1746620231206998000,3.089998046875,0.08515262603759766,-0.6521967649459839,0.32364362478256226
1746620231223794200,3.106794189453125,0.056418418884277344,-0.6037834882736206,0.3265104293823242
1746620231240614400,3.123614501953125,0.06622695922851562,-0.5858279466629028,0.444606214761734
1746620231257418000,3.14041796875,0.056427955627441406,-0.6111702919006348,0.44465571641921997
1746620231274233900,3.15723388671875,0.037756919860839844,-0.6043651103973389,0.4402181804180145
1746620231291031300,3.17403125,-0.03365802764892578,-0.5660929679870605,0.37924161553382874
1746620231307848400,3.190848388671875,-0.0910196304321289,-0.551038384437561,0.31687211990356445
1746620231324644400,3.207644287109375,-0.12982940673828125,-0.5272014141082764,0.3359363079071045
1746620231341465600,3.224465576171875,-0.04032135009765625,-0.5379544496536255,0.35285142064094543
1746620231358273500,3.2412734375,0.09509754180908203,-0.5442527532577515,0.34077543020248413
1746620231375079000,3.258078857421875,0.1554117202758789,-0.5761216878890991,0.3856559693813324
1746620231391894000,3.27489404296875,0.13508319854736328,-0.5700029134750366,0.42654791474342346
1746620231408703500,3.291703369140625,0.09458351135253906,-0.5499140024185181,0.4193924367427826
1746620231425494300,3.308494384765625,0.1459798812866211,-0.5718340873718262,0.4307693541049957
1746620231442316500,3.325316650390625,0.13069820404052734,-0.6043298244476318,0.44376373291015625
1746620231459111000,3.34211083984375,0.07209205627441406,-0.6283876895904541,0.36275017261505127
1746620231475936500,3.3589365234375,0.017688751220703125,-0.5999044179916382,0.3486396372318268
1746620231492741400,3.375741455078125,-0.026632308959960938,-0.5762914419174194,0.2716362476348877
1746620231509537000,3.392537109375,-0.06099510192871094,-0.6055160760879517,0.2831540107727051
1746620231526372000,3.4093720703125,-0.08743858337402344,-0.5937256813049316,0.2503478527069092
1746620231543167500,3.42616748046875,-0.12354278564453125,-0.5420513153076172,0.299551784992218
1746620231559992600,3.44299267578125,-0.08369731903076172,-0.5252490043640137,0.28302621841430664
1746620231576797700,3.459797607421875,-0.08158111572265625,-0.536683201789856,0.2820899188518524
1746620231593601800,3.476601806640625,-0.00818634033203125,-0.5467567443847656,0.26031413674354553
1746620231610415000,3.4934150390625,0.10764312744140625,-0.519385814666748,0.20599782466888428
1746620231627223000,3.51022314453125,0.24739551544189453,-0.5054340362548828,0.19695913791656494
1746620231644018400,3.527018310546875,0.34984588623046875,-0.5319311618804932,0.17900824546813965
1746620231660826400,3.543826416015625,0.3714742660522461,-0.4916343688964844,0.20628121495246887
1746620231677635000,3.560635009765625,0.3840751647949219,-0.4458967447280884,0.2652900218963623
1746620231694430200,3.57743017578125,0.34461212158203125,-0.45182037353515625,0.29645970463752747
1746620231711252000,3.594251953125,0.3636598587036133,-0.44978129863739014,0.3193169832229614
1746620231728043500,3.61104345703125,0.35856056213378906,-0.4455147981643677,0.33281806111335754
1746620231744870700,3.62787060546875,0.27349376678466797,-0.4853743314743042,0.39361587166786194
1746620231761675500,3.644675537109375,0.0942068099975586,-0.5255311727523804,0.41927969455718994
1746620231778486000,3.661486083984375,-0.009580612182617188,-0.5792139768600464,0.40346160531044006
1746620231795291000,3.678290771484375,-0.11786651611328125,-0.6117357611656189,0.40204504132270813
1746620231812106500,3.6951064453125,-0.17895221710205078,-0.6363177299499512,0.38320255279541016
1746620231828911000,3.7119111328125,-0.20777606964111328,-0.6393362283706665,0.4140821695327759
1746620231845717000,3.728717041015625,-0.3037986755371094,-0.631019651889801,0.3695871829986572
1746620231862530800,3.74553076171875,-0.3381471633911133,-0.6322289109230042,0.28807947039604187
1746620231879338200,3.762338134765625,-0.26399707794189453,-0.6180592179298401,0.3114546537399292
1746620231896146400,3.779146484375,-0.08080482482910156,-0.590853750705719,0.26971539855003357
1746620231912968000,3.795968017578125,0.14017105102539062,-0.5874916911125183,0.23367610573768616
1746620231929759500,3.812759521484375,0.3659381866455078,-0.536659836769104,0.22265887260437012
1746620231946566700,3.829566650390625,0.5211591720581055,-0.5148770809173584,0.24305596947669983
1746620231963380200,3.846380126953125,0.600738525390625,-0.5145106911659241,0.26084116101264954
1746620231980188000,3.86318798828125,0.5140972137451172,-0.5047658681869507,0.29850149154663086
1746620231996996000,3.87999609375,0.33837127685546875,-0.48386669158935547,0.3236941695213318
1746620232013805300,3.896805419921875,0.12453651428222656,-0.4674721956253052,0.3420315086841583
1746620232030611200,3.913611083984375,-0.0074062347412109375,-0.49211299419403076,0.3702266812324524
1746620232047441000,3.93044091796875,-0.010585784912109375,-0.5371906161308289,0.3456219732761383
1746620232064244500,3.947244384765625,-0.005126953125,-0.5951036810874939,0.3576502203941345
1746620232081052700,3.964052734375,0.0007371902465820312,-0.6045880913734436,0.3673483729362488
1746620232097860400,3.9808603515625,-0.05151939392089844,-0.6143850684165955,0.41029733419418335
1746620232114669300,3.99766943359375,-0.10864067077636719,-0.5943654775619507,0.42981892824172974
1746620232131478300,4.014478271484375,-0.13668346405029297,-0.6019284725189209,0.4349558651447296
1746620232148286500,4.031286376953125,-0.13765525817871094,-0.5871210694313049,0.391651451587677
1746620232165074400,4.048074462890625,-0.0905008316040039,-0.5832386612892151,0.42202460765838623
1746620232181892900,4.064892822265625,-0.014714241027832031,-0.6195128560066223,0.38624316453933716
1746620232198698200,4.0816982421875,0.10241317749023438,-0.5334752798080444,0.24788376688957214
1746620232215507000,4.0985068359375,0.24469470977783203,-0.5435909032821655,0.1792493760585785
1746620232232315000,4.11531494140625,0.3455162048339844,-0.5910581350326538,0.22384491562843323
1746620232249133300,4.13213330078125,0.36449527740478516,-0.5487506985664368,0.20556092262268066
1746620232265942800,4.14894287109375,0.26972103118896484,-0.5354034900665283,0.21728578209877014
1746620232282744300,4.165744384765625,0.14700698852539062,-0.5102533102035522,0.2706473767757416
1746620232299549000,4.182548828125,0.10985565185546875,-0.5079816579818726,0.2897369861602783
1746620232316357600,4.199357666015625,0.07771778106689453,-0.48784101009368896,0.31542670726776123
1746620232333166000,4.216166015625,0.04587841033935547,-0.5021001100540161,0.3228684961795807
1746620232349961500,4.23296142578125,-0.009369850158691406,-0.5262988805770874,0.34382492303848267
1746620232366786300,4.249786376953125,-0.032253265380859375,-0.5425781011581421,0.3817458748817444
1746620232383605500,4.26660546875,-0.012053489685058594,-0.5603512525558472,0.4138704538345337
1746620232400412400,4.283412353515625,0.07354164123535156,-0.574965238571167,0.37904268503189087
1746620232417193500,4.300193359375,0.14539527893066406,-0.5995184779167175,0.3779650926589966
1746620232434012200,4.31701220703125,0.1943807601928711,-0.6305648684501648,0.37412136793136597
1746620232450809600,4.3338095703125,0.10871028900146484,-0.5991118550300598,0.35604310035705566
1746620232467632000,4.350632080078125,-0.00006389617919921875,-0.5688135623931885,0.3247128427028656
1746620232484447200,4.367447265625,-0.09050750732421875,-0.5370025634765625,0.3273359537124634
1746620232501250600,4.38425048828125,-0.07549095153808594,-0.5251520872116089,0.32013967633247375
1746620232518059300,4.401059326171875,-0.041678428649902344,-0.5261235237121582,0.31775280833244324
1746620232534880300,4.41788037109375,0.024707794189453125,-0.515097975730896,0.2909717261791229
1746620232551694300,4.4346943359375,0.09625720977783203,-0.5177503824234009,0.29208311438560486
1746620232568494600,4.45149462890625,0.18221759796142578,-0.5098744630813599,0.2955099046230316
1746620232585307100,4.46830712890625,0.16337013244628906,-0.51036536693573,0.2892325520515442
1746620232602119400,4.485119384765625,0.12519359588623047,-0.5042619705200195,0.2536928951740265
1746620232618924500,4.501924560546875,0.1067342758178711,-0.4891037940979004,0.24463427066802979
1746620232635732500,4.518732421875,0.11286258697509766,-0.4982471466064453,0.30734309554100037
1746620232652523300,4.535523193359375,0.1137399673461914,-0.5040179491043091,0.31734514236450195
1746620232669327600,4.55232763671875,0.07155036926269531,-0.5140624046325684,0.2745100259780884
1746620232686147000,4.56914697265625,0.053254127502441406,-0.5187970399856567,0.30899038910865784
1746620232702952000,4.585951904296875,0.03034496307373047,-0.5237655639648438,0.2975770831108093
1746620232719761000,4.602760986328125,-0.040360450744628906,-0.5156182050704956,0.2902055084705353
1746620232736569300,4.6195693359375,-0.12567996978759766,-0.49720609188079834,0.3147677481174469
1746620232753395200,4.636395263671875,-0.15890884399414062,-0.4751476049423218,0.31413301825523376
1746620232770169900,4.653169921875,-0.12577438354492188,-0.4866039752960205,0.2809262275695801
1746620232786995000,4.669994873046875,-0.017038345336914062,-0.4903804063796997,0.2972155511379242
1746620232803803100,4.68680322265625,0.1066904067993164,-0.49386024475097656,0.2663286030292511
1746620232820612000,4.703612060546875,0.1678466796875,-0.4753381013870239,0.2539300322532654
1746620232837420000,4.720419921875,0.1390857696533203,-0.4374067783355713,0.2586069107055664
1746620232854216000,4.7372158203125,0.07288074493408203,-0.43943870067596436,0.31063520908355713
1746620232871023900,4.75402392578125,0.034943580627441406,-0.4502687454223633,0.34141603112220764
1746620232887842600,4.770842529296875,0.0112457275390625,-0.4360232353210449,0.3274502456188202
1746620232904657200,4.7876572265625,-0.003162384033203125,-0.42424285411834717,0.3224647641181946
1746620232921463600,4.804463623046875,0.06351566314697266,-0.4298744201660156,0.3491584062576294
1746620232938270500,4.8212705078125,0.1302032470703125,-0.4736825227737427,0.3480830788612366
1746620232955076600,4.83807666015625,0.17786216735839844,-0.48533928394317627,0.30856919288635254
1746620232971888600,4.854888671875,0.16816043853759766,-0.4649999141693115,0.3238692581653595
1746620232988699100,4.87169921875,0.1388692855834961,-0.388527512550354,0.3335089683532715
1746620233005502000,4.888501953125,0.09535694122314453,-0.346726655960083,0.3252004086971283
1746620233022314000,4.90531396484375,0.0952291488647461,-0.31895649433135986,0.27565714716911316
1746620233039163000,4.922162841796875,0.06257152557373047,-0.32662999629974365,0.25750768184661865
1746620233055926300,4.93892626953125,0.05926513671875,-0.3681001663208008,0.22840356826782227
1746620233072731000,4.95573095703125,0.1022176742553711,-0.39794397354125977,0.16891556978225708
1746620233089552000,4.9725517578125,0.13603687286376953,-0.4036986827850342,0.12668383121490479
1746620233106367500,4.989367431640625,0.15154266357421875,-0.43520379066467285,0.15661495923995972
1746620233123181600,5.006181640625,0.12791824340820312,-0.44386470317840576,0.11714470386505127
1746620233139969800,5.0229697265625,0.0721120834350586,-0.467853307723999,0.11192870140075684
1746620233156781600,5.039781494140625,-0.0033111572265625,-0.4546905755996704,0.15362036228179932
1746620233173603000,5.05660302734375,-0.07393550872802734,-0.451296329498291,0.17642593383789062
1746620233190398700,5.073398681640625,-0.12483882904052734,-0.45547962188720703,0.215854674577713
1746620233207202600,5.09020263671875,-0.19578933715820312,-0.4720892906188965,0.23767510056495667
1746620233224020700,5.107020751953125,-0.19585514068603516,-0.44487011432647705,0.2633216083049774
1746620233240836900,5.1238369140625,-0.11484241485595703,-0.4800124168395996,0.2917941212654114
1746620233257649200,5.140649169921875,0.02744770050048828,-0.46918511390686035,0.2647709548473358
1746620233274437400,5.157437255859375,0.07423114776611328,-0.41968846321105957,0.2908342480659485
1746620233291246600,5.17424658203125,0.025791168212890625,-0.37492895126342773,0.30252400040626526
1746620233308061700,5.191061767578125,0.07684612274169922,-0.35362493991851807,0.27946051955223083
1746620233324869000,5.207869140625,0.0907440185546875,-0.36439311504364014,0.34120529890060425
1746620233341672400,5.22467236328125,0.142974853515625,-0.4035106897354126,0.37969598174095154
1746620233358483500,5.2414833984375,0.19961071014404297,-0.41952216625213623,0.33232343196868896
1746620233375288300,5.258288330078125,0.1316061019897461,-0.3916820287704468,0.284496545791626
1746620233392118500,5.275118408203125,0.03548431396484375,-0.39692914485931396,0.28350529074668884
1746620233408918300,5.291918212890625,0.005862236022949219,-0.37518739700317383,0.24887984991073608
1746620233425718800,5.30871875,0.008966445922851562,-0.37774837017059326,0.28034940361976624
1746620233442522400,5.3255224609375,0.07855510711669922,-0.357694149017334,0.2881636321544647
1746620233459324400,5.342324462890625,0.20121002197265625,-0.37524235248565674,0.28980186581611633
1746620233476142600,5.359142578125,0.26834583282470703,-0.42457473278045654,0.2651982307434082
