time,seconds_elapsed,z,y,x
1746620228273920800,0.156920654296875,10.069596290588379,1.3459627628326416,-0.48454657196998596
1746620228290726400,0.173726318359375,10.395618438720703,1.2089736461639404,-0.5437689423561096
1746620228307534300,0.190534423828125,10.624731063842773,1.1389836072921753,-0.5874379873275757
1746620228324343300,0.20734326171875,10.825727462768555,1.1066805124282837,-0.5688936114311218
1746620228341149000,0.22414892578125,10.831111907958984,1.0827522277832031,-0.5599204897880554
1746620228357962800,0.240962646484375,10.711470603942871,1.072582721710205,-0.6023930907249451
1746620228374768400,0.257768310546875,10.472187995910645,1.1665010452270508,-0.5341976284980774
1746620228391577000,0.2745771484375,10.227521896362305,1.2275179624557495,-0.605384111404419
1746620228408402400,0.29140234375,9.826126098632812,1.2687941789627075,-0.6562315821647644
1746620228425204500,0.30820458984375,9.55214786529541,1.4344971179962158,-0.6358926296234131
1746620228442017800,0.325017822265625,9.360722541809082,1.472184181213379,-0.6592226624488831
1746620228458826800,0.34182666015625,9.332606315612793,1.6091731786727905,-0.3720839321613312
1746620228475616000,0.358615966796875,9.32303524017334,1.6420745849609375,-0.25722843408584595
1746620228492428000,0.375427978515625,9.21296501159668,1.6223337650299072,-0.3475574851036072
1746620228509223200,0.39222314453125,9.178269386291504,1.6522440910339355,-0.519242525100708
1746620228526045400,0.40904541015625,9.43609619140625,1.6157535314559937,-0.6442674994468689
1746620228542852900,0.425852783203125,9.704092025756836,1.545763373374939,-0.7028916478157043
1746620228559662000,0.442662109375,9.704092025756836,1.4602199792861938,-0.7794619798660278
1746620228576487200,0.459487060546875,9.550353050231934,1.6115660667419434,-0.706480860710144
1746620228593292500,0.47629248046875,9.479166984558105,1.6773686408996582,-0.5054838061332703
1746620228610101000,0.49310107421875,9.56052303314209,1.6157535314559937,-0.5252245664596558
1746620228626905900,0.50990576171875,9.665806770324707,1.5355939865112305,-0.6550351977348328
1746620228643721500,0.526721435546875,9.684351921081543,1.550549030303955,-0.7357929348945618
1746620228660527600,0.543527587890625,9.593423843383789,1.6115660667419434,-0.6544370055198669
1746620228677317600,0.560317626953125,9.56471061706543,1.659422516822815,-0.5874379873275757
1746620228694129700,0.577129638671875,9.6466646194458,1.6402798891067505,-0.49172505736351013
1746620228710938000,0.593938232421875,9.637691497802734,1.5966109037399292,-0.46360939741134644
1746620228727747800,0.610747802734375,9.742975234985352,1.6163517236709595,-0.4061816334724426
1746620228744554000,0.627553955078125,9.728618621826172,1.540379524230957,-0.5162515044212341
1746620228761363700,0.64436376953125,9.704689979553223,1.5020943880081177,-0.5736792087554932
1746620228778172000,0.661171875,9.690333366394043,1.4829518795013428,-0.631106972694397
1746620228794977300,0.677977294921875,9.675976753234863,1.454237937927246,-0.6598208546638489
1746620228811792100,0.694792236328125,9.714859962463379,1.4111671447753906,-0.5982056856155396
1746620228828593700,0.71159375,9.729216575622559,1.4213366508483887,-0.6029912829399109
1746620228845409800,0.728409912109375,9.686145782470703,1.4117653369903564,-0.6652047038078308
1746620228862232300,0.745232421875,9.623334884643555,1.4590235948562622,-0.722034215927124
1746620228878998800,0.761998779296875,9.65683364868164,1.430907964706421,-0.7124629616737366
1746620228895859200,0.778859130859375,9.714859962463379,1.4117653369903564,-0.6699903607368469
1746620228912653800,0.79565380859375,9.776474952697754,1.430907964706421,-0.6556333899497986
1746620228929441800,0.81244189453125,9.81535816192627,1.4261223077774048,-0.607776939868927
1746620228946245000,0.8292451171875,9.80100154876709,1.430907964706421,-0.6269195079803467
1746620228963065900,0.84606591796875,9.77707290649414,1.4452649354934692,-0.607776939868927
1746620228979873300,0.862873291015625,9.753145217895508,1.4404792785644531,-0.6221339106559753
1746620228996688600,0.879688720703125,9.81117057800293,1.373480200767517,-0.5940182209014893
1746620229013490700,0.89649072265625,9.902098655700684,1.3549357652664185,-0.5653043389320374
1746620229030299600,0.913299560546875,9.983454704284668,1.3459627628326416,-0.5946164131164551
1746620229047098400,0.930098388671875,9.945169448852539,1.3363914489746094,-0.589830756187439
1746620229063934700,0.946934814453125,9.81117057800293,1.3304094076156616,-0.6035895347595215
1746620229080736500,0.963736572265625,9.7064847946167,1.3106685876846313,-0.6083751320838928
1746620229097547000,0.980547119140625,9.749555587768555,1.3160524368286133,-0.5700899958610535
1746620229114355200,0.997355224609375,9.735198974609375,1.301695466041565,-0.6275177597999573
1746620229131164700,1.01416455078125,9.610772132873535,1.3106685876846313,-0.641276478767395
1746620229147971800,1.030971923828125,9.491130828857422,1.3435698747634888,-0.6406782865524292
1746620229164777200,1.047777099609375,9.491130828857422,1.3674981594085693,-0.631106972694397
1746620229181576000,1.064575927734375,9.644271850585938,1.339382529258728,-0.6173482537269592
1746620229198384000,1.081384033203125,9.8207426071167,1.3405789136886597,-0.6227321028709412
1746620229215189000,1.09818896484375,9.963713645935059,1.3316057920455933,-0.6658028960227966
1746620229232004000,1.115004150390625,10.006186485290527,1.3465609550476074,-0.7184450030326843
1746620229248809000,1.13180908203125,9.934999465942383,1.3369896411895752,-0.7280163168907166
1746620229265615600,1.14861572265625,9.772287368774414,1.3645070791244507,-0.7130611538887024
1746620229282407000,1.165406982421875,9.585647583007812,1.3968101739883423,-0.6981059908866882
1746620229299221800,1.1822216796875,9.500103950500488,1.4105689525604248,-0.6933203339576721
1746620229316042800,1.199042724609375,9.53360366821289,1.3722838163375854,-0.6598208546638489
1746620229332851700,1.215851806640625,9.644271850585938,1.3106685876846313,-0.6029912829399109
1746620229349660200,1.23266015625,9.750154495239258,1.2729816436767578,-0.5700899958610535
1746620229366491400,1.249491455078125,9.750154495239258,1.2867404222488403,-0.49351966381073
1746620229383298300,1.26629833984375,9.697511672973633,1.3052847385406494,-0.48394837975502014
1746620229400082700,1.283082763671875,9.568299293518066,1.342971682548523,-0.4307080805301666
1746620229416893400,1.2998935546875,9.454042434692383,1.3609179258346558,-0.4019941985607147
1746620229433690600,1.316690673828125,9.46301555633545,1.3950155973434448,-0.46360939741134644
1746620229450511000,1.333510986328125,9.577272415161133,1.4051851034164429,-0.5120640397071838
1746620229467321000,1.350321044921875,9.711270332336426,1.3866406679153442,-0.4743770956993103
1746620229484123100,1.367123046875,9.797411918640137,1.3441680669784546,-0.45523449778556824
1746620229500940000,1.38393994140625,9.783653259277344,1.3106685876846313,-0.49351966381073
1746620229517728800,1.400728759765625,9.70229721069336,1.3196417093276978,-0.46480581164360046
1746620229534535000,1.417534912109375,9.683155059814453,1.357926845550537,-0.46480581164360046
1746620229551361800,1.43436181640625,9.673583984375,1.353141188621521,-0.4743770956993103
1746620229568187600,1.451187744140625,9.730413436889648,1.3489537239074707,-0.5078766345977783
1746620229584986000,1.467986083984375,9.749555587768555,1.3298112154006958,-0.5126622319221497
1746620229601804000,1.484803955078125,9.750154495239258,1.3154542446136475,-0.4983053207397461
1746620229618609400,1.501609375,9.70229721069336,1.3100703954696655,-0.47916272282600403
1746620229635418000,1.518418212890625,9.601799011230469,1.3286148309707642,-0.46002015471458435
1746620229652230400,1.53523046875,9.539586067199707,1.323829174041748,-0.49292147159576416
1746620229668995800,1.551995849609375,9.601799011230469,1.2861422300338745,-0.5413761138916016
1746620229685845200,1.56884521484375,9.793225288391113,1.2538390159606934,-0.5706881880760193
1746620229702652700,1.585652587890625,9.965508460998535,1.2400803565979004,-0.5473581552505493
1746620229719436300,1.602436279296875,10.098908424377441,1.2317054271697998,-0.5808576941490173
1746620229736255200,1.619255126953125,10.127023696899414,1.2652050256729126,-0.5712863802909851
1746620229753061000,1.63606103515625,10.031908988952637,1.29810631275177,-0.5234299302101135
1746620229769863000,1.65286279296875,9.873384475708008,1.3357932567596436,-0.5653043389320374
1746620229786680600,1.6696806640625,9.759127616882324,1.3495519161224365,-0.5605186820030212
1746620229803489500,1.686489501953125,9.735198974609375,1.3489537239074707,-0.5557330846786499
1746620229820297500,1.70329736328125,9.792028427124023,1.3543375730514526,-0.5700899958610535
1746620229837106400,1.7201064453125,9.859625816345215,1.2831511497497559,-0.6089733839035034
1746620229853914000,1.7369140625,9.81655502319336,1.28255295753479,-0.5659025311470032
1746620229870758100,1.753758056640625,9.740582466125488,1.296311616897583,-0.5557330846786499
1746620229887545000,1.770545166015625,9.745368003845215,1.3058829307556152,-0.48873403668403625
1746620229904350500,1.7873505859375,9.736394882202148,1.2675977945327759,-0.48454657196998596
1746620229921165800,1.804165771484375,9.693324089050293,1.2430713176727295,-0.45104706287384033
1746620229937974500,1.820974609375,9.616754531860352,1.2664014101028442,-0.43130627274513245
1746620229954763300,1.83776318359375,9.57906723022461,1.2616157531738281,-0.41216370463371277
1746620229971558000,1.854557861328125,9.688538551330566,1.26699960231781,-0.45523449778556824
1746620229988382500,1.871382568359375,9.80817985534668,1.2197413444519043,-0.45583271980285645
1746620230005188400,1.888188232421875,9.885348320007324,1.196411371231079,-0.4372883439064026
1746620230022002000,1.905001953125,9.860821723937988,1.210768222808838,-0.47557350993156433
1746620230038808000,1.92180810546875,9.812965393066406,1.2442678213119507,-0.48454657196998596
1746620230055633000,1.9386328125,9.722038269042969,1.2580264806747437,-0.4749752879142761
1746620230072417000,1.9554169921875,9.707681655883789,1.2717852592468262,-0.47916272282600403
1746620230089220400,1.972220458984375,9.698110580444336,1.262213945388794,-0.46061834692955017
1746620230106041600,1.98904150390625,9.659226417541504,1.3004990816116333,-0.5078766345977783
1746620230122849800,2.005849853515625,9.65384292602539,1.3387842178344727,-0.5455635786056519
1746620230139659000,2.022658935546875,9.625727653503418,1.3100703954696655,-0.550349235534668
1746620230156467000,2.039467041015625,9.64965534210205,1.2915260791778564,-0.5700899958610535
1746620230173276700,2.056276611328125,9.735796928405762,1.2915260791778564,-0.5509474277496338
1746620230190081000,2.0730810546875,9.841081619262695,1.2873386144638062,-0.5180460810661316
1746620230206875400,2.08987548828125,9.917651176452637,1.301695466041565,-0.4701896607875824
1746620230223700700,2.10670068359375,9.964909553527832,1.3160524368286133,-0.4462614357471466
1746620230240510000,2.123510009765625,9.869196891784668,1.3591232299804688,-0.4983053207397461
1746620230257318000,2.14031787109375,9.730413436889648,1.3537393808364868,-0.5174478888511658
1746620230274114800,2.15711474609375,9.639486312866211,1.4057832956314087,-0.4977070987224579
1746620230290934500,2.1739345703125,9.520442962646484,1.3956137895584106,-0.46420758962631226
1746620230307731000,2.19073095703125,9.453444480895996,1.4189438819885254,-0.4301098585128784
1746620230324551700,2.2075517578125,9.448657989501953,1.4279168844223022,-0.4205385744571686
1746620230341361000,2.22436083984375,9.586843490600586,1.43389892578125,-0.45942193269729614
1746620230358172000,2.241171875,9.672985076904297,1.420140266418457,-0.4785645306110382
1746620230374976000,2.25797607421875,9.681958198547363,1.4009976387023926,-0.5407779216766357
1746620230391798300,2.27479833984375,9.64367389678955,1.4057832956314087,-0.5694918036460876
1746620230408592100,2.291592041015625,9.634101867675781,1.3818551301956177,-0.5694918036460876
1746620230425412000,2.308412109375,9.715457916259766,1.4159528017044067,-0.5647061467170715
1746620230442230000,2.32522998046875,9.729815483093262,1.4111671447753906,-0.5886343717575073
1746620230459015400,2.342015380859375,9.691530227661133,1.3968101739883423,-0.6173482537269592
1746620230475828500,2.358828369140625,9.652647018432617,1.4207384586334229,-0.607776939868927
1746620230492636400,2.375636474609375,9.705886840820312,1.4207384586334229,-0.5742774605751038
1746620230509433000,2.39243310546875,9.78664493560791,1.4213366508483887,-0.5934200286865234
1746620230526253600,2.409253662109375,9.849455833435059,1.3782658576965332,-0.5796613097190857
1746620230543064600,2.426064697265625,9.863813400268555,1.3926228284835815,-0.5557330846786499
1746620230559876000,2.4428759765625,9.796216011047363,1.4021940231323242,-0.5838487148284912
1746620230576681500,2.459681396484375,9.734601020812988,1.4111671447753906,-0.5694918036460876
1746620230593501000,2.4765009765625,9.691530227661133,1.430309772491455,-0.5647061467170715
1746620230610286300,2.493286376953125,9.667601585388184,1.4111671447753906,-0.5742774605751038
1746620230627118300,2.510118408203125,9.763314247131348,1.3926228284835815,-0.5790630578994751
1746620230643924700,2.5269248046875,9.839884757995605,1.3645070791244507,-0.6035895347595215
1746620230660738000,2.543738037109375,9.830313682556152,1.3208380937576294,-0.5940182209014893
1746620230677544200,2.560544189453125,9.768698692321777,1.3112667798995972,-0.5700899958610535
1746620230694335200,2.577335205078125,9.7064847946167,1.3154542446136475,-0.5748756527900696
1746620230711147300,2.594147216796875,9.682557106018066,1.3202399015426636,-0.5748756527900696
1746620230727955500,2.61095556640625,9.7064847946167,1.339382529258728,-0.5796613097190857
1746620230744761000,2.627760986328125,9.678369522094727,1.3058829307556152,-0.5461617708206177
1746620230761576000,2.644575927734375,9.620942115783691,1.3052847385406494,-0.5509474277496338
1746620230778381600,2.661381591796875,9.586843490600586,1.32921302318573,-0.5742774605751038
1746620230795186000,2.67818603515625,9.553942680358887,1.342971682548523,-0.5312066078186035
1746620230812001500,2.69500146484375,9.496515274047852,1.280758261680603,-0.5886343717575073
1746620230828806100,2.71180615234375,9.487542152404785,1.195214867591858,-0.6747759580612183
1746620230845615000,2.728614990234375,9.597611427307129,1.1718848943710327,-0.6562315821647644
1746620230862441000,2.74544091796875,9.793225288391113,1.1491531133651733,-0.6951149702072144
1746620230879229400,2.7622294921875,10.037891387939453,1.088136076927185,-0.6340979933738708
1746620230896053800,2.7790537109375,10.124032974243164,1.0785647630691528,-0.6005984544754028
1746620230912863000,2.795863037109375,10.071989059448242,1.0737791061401367,-0.5814558863639832
1746620230929653000,2.812653076171875,9.918848037719727,1.0582258701324463,-0.5862415432929993
1746620230946464800,2.82946484375,9.847063064575195,1.1150553226470947,-0.542572557926178
1746620230963274500,2.8462744140625,9.808777809143066,1.0911271572113037,-0.5521438121795654
1746620230980083200,2.863083251953125,9.80937671661377,1.057627558708191,-0.5377869009971619
1746620230996891400,2.879891357421875,9.814162254333496,1.0719845294952393,-0.5282155871391296
1746620231013700600,2.89670068359375,9.89551830291748,1.0390832424163818,-0.6005984544754028
1746620231030508300,2.91350830078125,9.90987491607666,1.0295119285583496,-0.5575276613235474
1746620231047334100,2.930334228515625,9.77109146118164,1.0666006803512573,-0.5234299302101135
1746620231064139300,2.94713916015625,9.637093544006348,1.1096714735031128,-0.5754738450050354
1746620231080948500,2.963948486328125,9.589237213134766,1.1186445951461792,-0.5611169338226318
1746620231097756400,2.98075634765625,9.613164901733398,1.1282159090042114,-0.5276173949241638
1746620231114565000,2.997565185546875,9.66102123260498,1.119242787361145,-0.5467599630355835
1746620231131355600,3.014355712890625,9.722636222839355,1.114457130432129,-0.5467599630355835
1746620231148165000,3.0311650390625,9.808777809143066,1.1054840087890625,-0.5330012440681458
1746620231164978200,3.047978271484375,9.885348320007324,1.054038405418396,-0.6239284873008728
1746620231181786600,3.06478662109375,9.880562782287598,1.0444670915603638,-0.6622136831283569
1746620231198581000,3.0815810546875,9.77527904510498,1.0630114078521729,-0.633499801158905
1746620231215402200,3.09840234375,9.727422714233398,1.1341979503631592,-0.5754738450050354
1746620231232210200,3.115210205078125,9.722636222839355,1.1670992374420166,-0.5084748268127441
1746620231249019600,3.13201953125,9.708877563476562,1.1425727605819702,-0.46061834692955017
1746620231265826300,3.148826416015625,9.713663101196289,1.1377872228622437,-0.45104706287384033
1746620231282639600,3.1656396484375,9.674779891967773,1.1856436729431152,-0.47976094484329224
1746620231299430700,3.1824306640625,9.607182502746582,1.200000524520874,-0.5605186820030212
1746620231316253200,3.199253173828125,9.535398483276367,1.2191431522369385,-0.584446907043457
1746620231333061000,3.21606103515625,9.550353050231934,1.2137593030929565,-0.5365904569625854
1746620231349868800,3.232868896484375,9.678967475891113,1.2191431522369385,-0.5228317379951477
1746620231366680800,3.249680908203125,9.794421195983887,1.1718848943710327,-0.503689169883728
1746620231383487200,3.2664873046875,9.81356430053711,1.1479566097259521,-0.45643091201782227
1746620231400295000,3.283294921875,9.784850120544434,1.1718848943710327,-0.42771705985069275
1746620231417104000,3.300103759765625,9.799206733703613,1.1623135805130005,-0.4372883439064026
1746620231433912000,3.316912109375,9.81954574584961,1.1048858165740967,-0.389431893825531
1746620231450705000,3.333704833984375,9.771689414978027,1.095314621925354,-0.4325026869773865
1746620231467515600,3.350515625,9.714262008666992,1.0809576511383057,-0.4707878530025482
1746620231484327700,3.36732763671875,9.665806770324707,1.1001001596450806,-0.5180460810661316
1746620231501145600,3.3841455078125,9.622735977172852,1.1048858165740967,-0.5563312768936157
1746620231517954800,3.400954833984375,9.613164901733398,1.0803594589233398,-0.5563312768936157
1746620231534762500,3.417762451171875,9.57487964630127,1.1186445951461792,-0.5276173949241638
1746620231551571500,3.434571533203125,9.565308570861816,1.1324033737182617,-0.4893322288990021
1746620231568393000,3.45139306640625,9.603593826293945,1.113858938217163,-0.47976094484329224
1746620231585203000,3.468202880859375,9.637691497802734,1.0947163105010986,-0.48454657196998596
1746620231602014200,3.48501416015625,9.742377281188965,1.095314621925354,-0.5186443328857422
1746620231618819600,3.501819580078125,9.870991706848145,1.1108678579330444,-0.5473581552505493
1746620231635610600,3.518610595703125,9.985847473144531,1.077966570854187,-0.5527420043945312
1746620231652422400,3.53542236328125,10.067203521728516,1.0546365976333618,-0.5431707501411438
1746620231669219000,3.552218994140625,10.076774597167969,1.0971091985702515,-0.4905286431312561
1746620231686036000,3.569035888671875,10.067203521728516,1.1252248287200928,-0.4331009089946747
1746620231702850600,3.5858505859375,10.04865837097168,1.1012966632843018,-0.39541393518447876
1746620231719656700,3.60265673828125,10.076774597167969,1.1156535148620605,-0.3858426511287689
1746620231736464400,3.61946435546875,10.043872833251953,1.0965110063552856,-0.33798620104789734
1746620231753273300,3.6362734375,9.891928672790527,1.0618150234222412,-0.2799602448940277
1746620231770067000,3.65306689453125,9.69631576538086,1.0271191596984863,-0.2799602448940277
1746620231786890200,3.66989013671875,9.639486312866211,0.973878800868988,-0.27038896083831787
1746620231803701500,3.686701416015625,9.538987159729004,0.9786644577980042,-0.28893333673477173
1746620231820507100,3.703507080078125,9.491728782653809,0.9589236974716187,-0.2793620526790619
1746620231837315000,3.720315185546875,9.443872451782227,0.9684949517250061,-0.2745763957500458
1746620231854124300,3.737124267578125,9.367302894592285,0.9589236974716187,-0.3607180118560791
1746620231870915000,3.7539150390625,9.386445045471191,0.9684949517250061,-0.3655036687850952
1746620231887753500,3.77075341796875,9.515059471130371,0.973878800868988,-0.37028929591178894
1746620231904568800,3.78756884765625,9.734601020812988,0.9750752449035645,-0.4043870270252228
1746620231921368800,3.804368896484375,9.958928108215332,0.9720842242240906,-0.4289134442806244
1746620231938166500,3.82116650390625,10.173684120178223,0.997208833694458,-0.4295116662979126
1746620231954972200,3.83797216796875,10.29332447052002,0.9834501147270203,-0.4055834412574768
1746620231971773400,3.8547734375,10.29332447052002,0.9924231767654419,-0.3768695592880249
1746620231988592600,3.871592529296875,10.149755477905273,1.0061819553375244,-0.3290131092071533
1746620232005400600,3.888400634765625,9.949356079101562,1.0474581718444824,-0.2949153780937195
1746620232022209300,3.905209228515625,9.753145217895508,1.0516455173492432,-0.28953152894973755
1746620232038996500,3.92199658203125,9.715457916259766,1.0271191596984863,-0.27038896083831787
1746620232055844600,3.9388447265625,9.7064847946167,0.9744769930839539,-0.28953152894973755
1746620232072642600,3.955642578125,9.7064847946167,0.9457631707191467,-0.2709871530532837
1746620232089445400,3.9724453125,9.68794059753418,0.9361918568611145,-0.251844584941864
1746620232106261800,3.98926171875,9.621540069580078,0.9403793215751648,-0.18903298676013947
1746620232123077000,4.0060771484375,9.616754531860352,0.9493523836135864,-0.16510476171970367
1746620232139881200,4.022881103515625,9.56351375579834,0.96370929479599,-0.1986042857170105
1746620232156674600,4.039674560546875,9.606584548950195,0.9690931439399719,-0.20817556977272034
1746620232173485000,4.056485107421875,9.644869804382324,0.9547362327575684,-0.21296121180057526
1746620232190294300,4.073294189453125,9.754940032958984,0.9266205430030823,-0.23270200192928314
1746620232207114000,4.090114013671875,9.896116256713867,1.0145567655563354,-0.4378865361213684
1746620232223911200,4.1069111328125,10.03549861907959,0.9529415965080261,-0.4289134442806244
1746620232240716300,4.12371630859375,10.097711563110352,0.9631111025810242,-0.4103690981864929
1746620232257548000,4.140548095703125,10.034899711608887,0.9822536706924438,-0.44805604219436646
1746620232274332400,4.15733251953125,9.920642852783203,1.0049854516983032,-0.39541393518447876
1746620232291145000,4.17414501953125,9.834501266479492,1.0426725149154663,-0.3613162338733673
1746620232307955200,4.190955078125,9.805787086486816,1.046859860420227,-0.33738797903060913
1746620232324762000,4.20776220703125,9.77707290649414,1.0564311742782593,-0.31345975399017334
1746620232341570300,4.2245703125,9.714859962463379,1.0606186389923096,-0.3086741268634796
1746620232358379000,4.24137890625,9.681958198547363,1.0414760112762451,-0.2847459018230438
1746620232375200000,4.258199951171875,9.691530227661133,1.0319048166275024,-0.26560330390930176
1746620232392013300,4.275013427734375,9.720842361450195,1.0079765319824219,-0.24167509377002716
1746620232408800500,4.291800537109375,9.806385040283203,1.0085747241973877,-0.26620152592658997
1746620232425602000,4.30860205078125,9.883553504943848,0.9613165259361267,-0.2709871530532837
1746620232442421000,4.3254208984375,9.859027862548828,0.9756734371185303,-0.29012975096702576
1746620232459216600,4.342216552734375,9.748957633972168,1.0133603811264038,-0.3086741268634796
1746620232476024800,4.35902490234375,9.647860527038574,1.0654042959213257,-0.32721850275993347
1746620232492846600,4.3758466796875,9.604789733886719,1.079761266708374,-0.3367897868156433
1746620232509641500,4.392641357421875,9.647860527038574,1.0845468044281006,-0.3320041298866272
1746620232526463700,4.409463623046875,9.681360244750977,1.079761266708374,-0.34636107087135315
1746620232543289000,4.4262890625,9.757332801818848,1.1042876243591309,-0.37507495284080505
1746620232560094700,4.4430947265625,9.853045463562012,1.095314621925354,-0.3613162338733673
1746620232576886000,4.459885986328125,9.881759643554688,1.095314621925354,-0.37088751792907715
1746620232593711000,4.476711181640625,9.843474388122559,1.090528964996338,-0.39960137009620667
1746620232610503700,4.493503662109375,9.814162254333496,1.119242787361145,-0.42293140292167664
1746620232627311900,4.510311767578125,9.80937671661377,1.1240284442901611,-0.39421752095222473
1746620232644106000,4.52710595703125,9.814760208129883,1.1186445951461792,-0.35114672780036926
1746620232660931300,4.543931396484375,9.786046028137207,1.1186445951461792,-0.37507495284080505
1746620232677739300,4.5607392578125,9.762118339538574,1.1186445951461792,-0.3846462368965149
1746620232694548500,4.577548583984375,9.747760772705078,1.1186445951461792,-0.3655036687850952
1746620232711368700,4.59436865234375,9.68076229095459,1.1228320598602295,-0.37507495284080505
1746620232728165400,4.611165283203125,9.604191780090332,1.1419745683670044,-0.3888336718082428
1746620232744976100,4.62797607421875,9.537193298339844,1.155733346939087,-0.34576287865638733
1746620232761795600,4.644795654296875,9.546764373779297,1.1700903177261353,-0.3840480446815491
1746620232778587000,4.6615869140625,9.623334884643555,1.1467602252960205,-0.3840480446815491
1746620232795406000,4.678406005859375,9.742377281188965,1.1425727605819702,-0.3846462368965149
1746620232812207400,4.695207275390625,9.842875480651855,1.1431710720062256,-0.42771705985069275
1746620232829018400,4.712018310546875,9.856635093688965,1.1772687435150146,-0.42771705985069275
1746620232845824500,4.728824462890625,9.794421195983887,1.1910275220870972,-0.39900317788124084
1746620232862633200,4.74563330078125,9.747162818908691,1.195214867591858,-0.3601198196411133
1746620232879428900,4.762428955078125,9.713663101196289,1.1856436729431152,-0.35054850578308105
1746620232896250400,4.77925048828125,9.694520950317383,1.2041879892349243,-0.3696911036968231
1746620232913058300,4.796058349609375,9.717850685119629,1.2191431522369385,-0.364905446767807
1746620232929867800,4.81286767578125,9.775876998901367,1.1808580160140991,-0.3367897868156433
1746620232946664400,4.82966455078125,9.857233047485352,1.1431710720062256,-0.3655036687850952
1746620232963484200,4.846484130859375,9.871589660644531,1.1479566097259521,-0.39421752095222473
1746620232980292400,4.863292236328125,9.847063064575195,1.1958130598068237,-0.3655036687850952
1746620232997097700,4.88009765625,9.812965393066406,1.2675977945327759,-0.37447673082351685
1746620233013912300,4.896912353515625,9.76989459991455,1.2957134246826172,-0.39840495586395264
1746620233030736000,4.91373583984375,9.769296646118164,1.3058829307556152,-0.4504488706588745
1746620233047521800,4.930521728515625,9.745966911315918,1.277169108390808,-0.4654040038585663
1746620233064352800,4.947352783203125,9.759725570678711,1.2532408237457275,-0.5132604837417603
1746620233081157000,4.9641572265625,9.821938514709473,1.225723385810852,-0.589830756187439
1746620233097962500,4.98096240234375,9.845867156982422,1.2113664150238037,-0.5754738450050354
1746620233114777900,4.99777783203125,9.821938514709473,1.2059825658798218,-0.5706881880760193
1746620233131565800,5.01456591796875,9.783653259277344,1.1874382495880127,-0.6376872062683105
1746620233148377000,5.031377197265625,9.726823806762695,1.191625714302063,-0.5994020700454712
1746620233165183500,5.04818359375,9.645467758178711,1.2005987167358398,-0.5700899958610535
1746620233181997000,5.0649970703125,9.593423843383789,1.2047861814498901,-0.5461617708206177
1746620233198803200,5.08180322265625,9.521639823913574,1.1994023323059082,-0.5174478888511658
1746620233215611100,5.098611083984375,9.474381446838379,1.1754741668701172,-0.5126622319221497
1746620233232437500,5.1154375,9.502496719360352,1.2281162738800049,-0.47916272282600403
1746620233249229300,5.132229248046875,9.651450157165527,1.1617153882980347,-0.4749752879142761
1746620233266044700,5.149044677734375,9.741779327392578,1.186241865158081,-0.48454657196998596
1746620233282848300,5.16584814453125,9.750752449035645,1.2388839721679688,-0.46061834692955017
1746620233299654000,5.18265380859375,9.726225852966309,1.2867404222488403,-0.47916272282600403
1746620233316462300,5.19946240234375,9.779465675354004,1.272383451461792,-0.4414757788181305
1746620233333271000,5.21627099609375,9.789037704467773,1.2436695098876953,-0.40319061279296875
1746620233350079000,5.233078857421875,9.870991706848145,1.1958130598068237,-0.4085744619369507
1746620233366891500,5.2498916015625,9.884750366210938,1.2059825658798218,-0.4899304509162903
1746620233383710000,5.2667099609375,9.770493507385254,1.2005987167358398,-0.48454657196998596
1746620233400518400,5.283518310546875,9.707681655883789,1.210170030593872,-0.5324030518531799
1746620233417326600,5.30032666015625,9.702896118164062,1.205384373664856,-0.5228317379951477
1746620233434118700,5.31711865234375,9.736394882202148,1.2149556875228882,-0.5084748268127441
1746620233450930000,5.333929931640625,9.827322959899902,1.191625714302063,-0.5084748268127441
1746620233467739000,5.35073876953125,9.947562217712402,1.134796142578125,-0.5138586759567261
