time,seconds_elapsed,z,y,x
1744883829180860000,0.06585986328125,9.507881164550781,2.469393014907837,-0.3445664644241333
1744883829197673000,0.0826728515625,9.388239860534668,2.5112674236297607,-0.32542386651039124
1744883829214480600,0.099480712890625,9.32602596282959,2.5399811267852783,-0.30568310618400574
1744883829231298800,0.116298828125,9.32602596282959,2.5399811267852783,-0.3248256742954254
1744883829248105500,0.13310546875,9.378069877624512,2.5262224674224854,-0.4013960063457489
1744883829264917000,0.1499169921875,9.445667266845703,2.507079839706421,-0.349352091550827
1744883829281728800,0.166728759765625,9.503094673156738,2.507079839706421,-0.2919243574142456
1744883829298532000,0.183531982421875,9.531808853149414,2.5076780319213867,-0.35413774847984314
1744883829315348200,0.20034814453125,9.583852767944336,2.526820659637451,-0.33499518036842346
1744883829332161300,0.217161376953125,9.598808288574219,2.531606435775757,-0.24466611444950104
1744883829348972300,0.23397216796875,9.565308570861816,2.517249345779419,-0.2925225794315338
1744883829365783800,0.25078369140625,9.531210899353027,2.531606435775757,-0.33499518036842346
1744883829382594000,0.267593994140625,9.45045280456543,2.531008243560791,-0.31106695532798767
1744883829399405300,0.2844052734375,9.398408889770508,2.4873390197753906,-0.27756741642951965
1744883829416216600,0.301216552734375,9.364909172058105,2.4681966304779053,-0.2632105052471161
1744883829433024800,0.318024658203125,9.336195945739746,2.5010979175567627,-0.23449662327766418
1744883829449827800,0.334827880859375,9.259625434875488,2.5058834552764893,-0.28654050827026367
1744883829466640600,0.351640625,9.202198028564453,2.524427890777588,-0.24825534224510193
1744883829483460600,0.368460693359375,9.173483848571777,2.586043119430542,-0.1908276081085205
1744883829500271600,0.385271728515625,9.302098274230957,2.6111676692962646,-0.2386840581893921
1744883829517082000,0.40208203125,9.564111709594727,2.641676187515259,-0.2967100143432617
1744883829533893600,0.4188935546875,9.831509590148926,2.633301258087158,-0.27337998151779175
1744883829550704400,0.435704345703125,10.007980346679688,2.610569477081299,-0.3314059376716614
1744883829567505200,0.452505126953125,9.970293998718262,2.5674986839294434,-0.34576287865638733
1744883829584322000,0.469322021484375,10.028319358825684,2.5148565769195557,-0.32243284583091736
1744883829601138400,0.486138427734375,10.061819076538086,2.524427890777588,-0.29371899366378784
1744883829617949400,0.502949462890625,10.043872833251953,2.3856441974639893,-0.28953152894973755
1744883829634759200,0.51975927734375,9.978070259094238,2.2995026111602783,-0.26560330390930176
1744883829651573500,0.536573486328125,9.801599502563477,2.2408783435821533,-0.27038896083831787
1744883829668381400,0.55338134765625,9.582656860351562,2.210968017578125,-0.2745763957500458
1744883829685193000,0.57019287109375,9.396016120910645,2.2576282024383545,-0.259621262550354
1744883829702004000,0.58700390625,9.243474006652832,2.266003131866455,-0.18723836541175842
1744883829718801200,0.60380126953125,9.176474571228027,2.2654049396514893,-0.16809579730033875
1744883829735621000,0.62062109375,9.200403213500977,2.266003131866455,-0.2063809484243393
1744883829752441300,0.63744140625,9.31884765625,2.3054845333099365,-0.27337998151779175
1744883829769248000,0.654248046875,9.514460563659668,2.3306093215942383,-0.3170489966869354
1744883829786058200,0.671058349609375,9.709476470947266,2.3700907230377197,-0.35533416271209717
1744883829802869800,0.687869873046875,9.843474388122559,2.3467607498168945,-0.35114672780036926
1744883829819680800,0.7046806640625,9.934401512145996,2.3473589420318604,-0.355932354927063
1744883829836492300,0.7214921875,9.92961597442627,2.337787628173828,-0.3367897868156433
1744883829853302500,0.738302490234375,9.767501831054688,2.3605196475982666,-0.26500511169433594
1744883829870113800,0.75511376953125,9.528220176696777,2.407179594039917,-0.2877369225025177
1744883829886924800,0.7719248046875,9.317052841186523,2.482553482055664,-0.28235307335853577
1744883829903728000,0.78872802734375,9.178269386291504,2.5148565769195557,-0.31046873331069946
1744883829920546800,0.805546875,9.18724250793457,2.544168710708618,-0.33379876613616943
1744883829937358300,0.8223583984375,9.249456405639648,2.544168710708618,-0.35832518339157104
1744883829954155800,0.83915576171875,9.42173957824707,2.5118656158447266,-0.3684946894645691
1744883829970980000,0.85597998046875,9.570094108581543,2.4837498664855957,-0.3595215976238251
1744883829987790600,0.87279052734375,9.641879081726074,2.465205430984497,-0.3643072545528412
1744883830004585500,0.88958544921875,9.670592308044434,2.4508485794067383,-0.3451646566390991
1744883830021416400,0.90641650390625,9.613164901733398,2.489133834838867,-0.32602208852767944
1744883830038224600,0.923224609375,9.503094673156738,2.5076780319213867,-0.3445664644241333
1744883830055035000,0.940034912109375,9.393025398254395,2.5262224674224854,-0.3445664644241333
1744883830071846000,0.956845947265625,9.239884376525879,2.5537400245666504,-0.3535395562648773
1744883830088644000,0.97364404296875,9.134600639343262,2.581855535507202,-0.33379876613616943
1744883830105455400,0.990455322265625,9.081958770751953,2.6057839393615723,-0.33858439326286316
1744883830122283800,1.00728369140625,9.19143009185791,2.6015963554382324,-0.381655216217041
1744883830139090200,1.024090087890625,9.124430656433105,2.5872395038604736,-0.46719861030578613
1744883830155901400,1.0409013671875,9.210572242736816,2.596810817718506,-0.41515472531318665
1744883830172712700,1.057712646484375,9.2919282913208,2.6213371753692627,-0.36729827523231506
1744883830189523000,1.07452294921875,9.233902931213379,2.669193744659424,-0.4103690981864929
1744883830206330400,1.091330322265625,9.247661590576172,2.7499513626098633,-0.357128769159317
1744883830223145200,1.108145263671875,9.19023323059082,2.740380048751831,-0.3523431420326233
1744883830239934500,1.1249345703125,9.203991889953613,2.788236618041992,-0.39541393518447876
1744883830256767000,1.14176708984375,9.175278663635254,2.840280532836914,-0.3756731450557709
1744883830273578200,1.158578125,9.193224906921387,2.912065267562866,-0.36610186100006104
1744883830290389200,1.17538916015625,9.294321060180664,2.8695926666259766,-0.29012975096702576
1744883830307200500,1.192200439453125,9.538389205932617,2.8085756301879883,-0.3194418251514435
1744883830324011000,1.209010986328125,9.742975234985352,2.7487549781799316,-0.5353940725326538
1744883830340813300,1.225813232421875,9.882357597351074,2.616551637649536,-0.641276478767395
1744883830357633300,1.24263330078125,9.835697174072266,2.5489542484283447,-0.6173482537269592
1744883830374428700,1.2594287109375,9.659825325012207,2.5094728469848633,-0.5359922647476196
1744883830391258400,1.27625830078125,9.463613510131836,2.550748825073242,-0.4731806814670563
1744883830408066600,1.293066650390625,9.392427444458008,2.5405795574188232,-0.39182472229003906
1744883830424877300,1.309877197265625,9.565308570861816,2.4699912071228027,-0.373878538608551
1744883830441675800,1.32667578125,9.766305923461914,2.3850460052490234,-0.4462614357471466
1744883830458486000,1.343486083984375,9.957731246948242,2.3048863410949707,-0.4660021960735321
1744883830475310300,1.360310302734375,9.963115692138672,2.266601324081421,-0.4331009089946747
1744883830492121600,1.37712158203125,9.844670295715332,2.2085752487182617,-0.4091726839542389
1744883830508919800,1.393919921875,9.80219841003418,2.231307029724121,-0.21774685382843018
1744883830525740000,1.410739990234375,9.682557106018066,2.2396819591522217,-0.20757736265659332
1744883830542558000,1.427557861328125,9.629316329956055,2.2881367206573486,-0.3361915946006775
1744883830559366000,1.444365966796875,9.619147300720215,2.331207513809204,-0.3314059376716614
1744883830576173600,1.461173583984375,9.599406242370605,2.383849620819092,-0.3314059376716614
1744883830592990500,1.477990478515625,9.603593826293945,2.4460630416870117,-0.3451646566390991
1744883830609799000,1.494798828125,9.589237213134766,2.493321180343628,-0.3403790295124054
1744883830626609700,1.511609619140625,9.588638305664062,2.5363919734954834,-0.3158525824546814
1744883830643421000,1.5284208984375,9.574281692504883,2.5459632873535156,-0.30149564146995544
1744883830660232200,1.545232177734375,9.631709098815918,2.555534601211548,-0.3164508044719696
1744883830677042700,1.562042724609375,9.735796928405762,2.6189444065093994,-0.38285163044929504
1744883830693854200,1.578854248046875,9.845269203186035,2.6530420780181885,-0.3978067636489868
1744883830710665200,1.595665283203125,9.92124080657959,2.6392834186553955,-0.43130627274513245
1744883830727475500,1.612475341796875,9.92124080657959,2.6297121047973633,-0.4743770956993103
1744883830744284200,1.6292841796875,9.883553504943848,2.6249263286590576,-0.46002015471458435
1744883830761101000,1.64610107421875,9.80219841003418,2.647658348083496,-0.35892340540885925
1744883830777909500,1.662909423828125,9.717850685119629,2.579462766647339,-0.2111666053533554
1744883830794717000,1.679717041015625,9.650253295898438,2.641676187515259,-0.20099709928035736
1744883830811534600,1.69653466796875,9.81236743927002,2.638087034225464,-0.24466611444950104
1744883830828342000,1.713342041015625,10.066604614257812,2.5435705184936523,-0.18843477964401245
1744883830845153300,1.7301533203125,10.302297592163086,2.386840581893921,-0.17527425289154053
1744883830861964000,1.746964111328125,10.398609161376953,2.3156540393829346,-0.17587246000766754
1744883830878763000,1.763762939453125,10.187442779541016,2.3198416233062744,-0.2997010350227356
1744883830895586300,1.78058642578125,9.795618057250977,2.3563320636749268,-0.32721850275993347
1744883830912397600,1.7973974609375,9.241679191589355,2.4526431560516357,-0.22492532432079315
1744883830929208000,1.8142080078125,8.749356269836426,2.568695068359375,-0.03170489892363548
1744883830946016300,1.831016357421875,8.3898344039917,2.7672994136810303,0.026919255033135414
1744883830962830600,1.84783056640625,8.26839828491211,2.9108686447143555,-0.1052841991186142
1744883830979644400,1.86464453125,8.038089752197266,3.0245277881622314,-0.16151553392410278
1744883830996452000,1.8814521484375,8.215158462524414,3.0957143306732178,0.08614161610603333
1744883831013263400,1.898263427734375,8.531010627746582,3.0831520557403564,0.15254244208335876
1744883831030074400,1.915074462890625,8.85344409942627,3.1339993476867676,-0.129810631275177
1744883831046885600,1.9318857421875,8.976076126098633,3.2315070629119873,-0.3116651475429535
1744883831063693000,1.948693115234375,8.831908226013184,3.2883365154266357,-0.35832518339157104
1744883831080500200,1.965500244140625,8.644669532775879,3.387040376663208,-0.3194418251514435
1744883831097318700,1.982318603515625,8.528617858886719,3.5539398193359375,-0.3326023519039154
1744883831114130000,1.9991298828125,8.69910717010498,3.656233072280884,-0.4905286431312561
1744883831130927000,2.015927001953125,9.07537841796875,3.6496527194976807,-0.6873382925987244
1744883831147751700,2.032751708984375,9.462417602539062,3.5850465297698975,-0.722034215927124
1744883831164559400,2.049559326171875,9.78843879699707,3.452843189239502,-0.6705885529518127
1744883831181363500,2.066363525390625,9.9140625,3.3098719120025635,-0.6191428303718567
1744883831198184400,2.083184326171875,9.871589660644531,3.2614171504974365,-0.6047859191894531
1744883831214995700,2.09999560546875,9.719645500183105,3.245863914489746,-0.5330012440681458
1744883831231806500,2.116806396484375,9.477372169494629,3.1722846031188965,-0.42293140292167664
1744883831248604400,2.1336044921875,9.277571678161621,3.0903303623199463,-0.4325026869773865
1744883831265428500,2.150428466796875,9.09691333770752,2.988635540008545,-0.389431893825531
1744883831282239500,2.167239501953125,8.992825508117676,2.9587252140045166,-0.2793620526790619
1744883831299047200,2.184047119140625,8.9312105178833,2.9389843940734863,-0.2315055876970291
1744883831315865300,2.200865234375,8.95513916015625,2.9341988563537598,-0.22193430364131927
1744883831332672300,2.21767236328125,8.959325790405273,2.9724838733673096,-0.2267199456691742
1744883831349483500,2.2344833984375,9.021539688110352,2.9868409633636475,-0.1740778535604477
1744883831366294500,2.25129443359375,9.17467975616455,2.9826533794403076,-0.12681959569454193
1744883831383105800,2.268105712890625,9.30329418182373,3.012563705444336,-0.1746760457754135
1744883831399913000,2.284912841796875,9.412766456604004,3.0801608562469482,-0.1746760457754135
1744883831416731000,2.30173095703125,9.502496719360352,3.142374277114868,-0.16510476171970367
1744883831433538600,2.31853857421875,9.592825889587402,3.1860432624816895,-0.1986042857170105
1744883831450350000,2.33535009765625,9.616754531860352,3.1962127685546875,-0.21774685382843018
1744883831467154700,2.35215478515625,9.597611427307129,3.1722846031188965,-0.26081767678260803
1744883831483971600,2.3689716796875,9.564111709594727,3.1722846031188965,-0.2991028428077698
1744883831500771000,2.38577099609375,9.492925643920898,3.128615617752075,-0.29431718587875366
1744883831517592600,2.402592529296875,9.445069313049316,3.104687452316284,-0.29431718587875366
1744883831534401000,2.419401123046875,9.387641906738281,3.0903303623199463,-0.34636107087135315
1744883831551219000,2.436218994140625,9.32602596282959,3.0514471530914307,-0.32721850275993347
1744883831568027000,2.45302685546875,9.283554077148438,2.9940192699432373,-0.3086741268634796
1744883831584838100,2.469838134765625,9.226723670959473,2.9557342529296875,-0.3613162338733673
1744883831601649000,2.48664892578125,9.193224906921387,2.9359934329986572,-0.3517449200153351
1744883831618452000,2.503451904296875,9.193822860717773,2.912065267562866,-0.31345975399017334
1744883831635272400,2.5202724609375,9.18425178527832,2.926422119140625,-0.2847459018230438
1744883831652082000,2.53708203125,9.193224906921387,2.9359934329986572,-0.31824541091918945
1744883831668878000,2.553878173828125,9.312865257263184,2.9413771629333496,-0.32303106784820557
1744883831685704200,2.5707041015625,9.403793334960938,2.937189817428589,-0.2949153780937195
1744883831702509300,2.58750927734375,9.485149383544922,2.937189817428589,-0.2757728099822998
1744883831719331800,2.604331787109375,9.494720458984375,2.937189817428589,-0.2566302418708801
1744883831736136700,2.62113671875,9.432506561279297,2.9318058490753174,-0.2183450609445572
1744883831752945000,2.63794482421875,9.356534957885742,2.9455647468566895,-0.18484555184841156
1744883831769762300,2.65476220703125,9.32303524017334,2.9359934329986572,-0.20877377688884735
1744883831786570500,2.671570556640625,9.342177391052246,2.936591625213623,-0.23270200192928314
1744883831803377400,2.68837744140625,9.408578872680664,2.9557342529296875,-0.23748764395713806
1744883831820195300,2.7051953125,9.485149383544922,2.937189817428589,-0.20877377688884735
1744883831837002800,2.722002685546875,9.542576789855957,2.9377880096435547,-0.26620152592658997
1744883831853815000,2.73881494140625,9.551549911499023,2.9138598442077637,-0.3242274820804596
1744883831870621700,2.75562158203125,9.518648147583008,2.9042885303497314,-0.2667997181415558
1744883831887436000,2.77243603515625,9.523433685302734,2.885145902633667,-0.2907279431819916
1744883831904253400,2.78925341796875,9.547362327575684,2.8905298709869385,-0.33858439326286316
1744883831921058600,2.80605859375,9.547362327575684,2.871387243270874,-0.3433700501918793
1744883831937867800,2.82286767578125,9.509077072143555,2.870789051055908,-0.3577269911766052
1744883831954678500,2.839678466796875,9.446864128112793,2.8803603649139404,-0.3475574851036072
1744883831971494700,2.85649462890625,9.366106033325195,2.8462624549865723,-0.2997010350227356
1744883831988302300,2.87330224609375,9.328418731689453,2.816950559616089,-0.26620152592658997
1744883832005113300,2.89011328125,9.30030345916748,2.7828526496887207,-0.23330020904541016
1744883832021924600,2.906924560546875,9.396614074707031,2.7451658248901367,-0.1860419660806656
1744883832038722300,2.923722412109375,9.281759262084961,2.715853691101074,-0.23808585107326508
1744883832055547000,2.940546875,9.033503532409668,2.7248268127441406,-0.2805584669113159
1744883832072357000,2.957357177734375,8.96112060546875,2.8002007007598877,-0.2273181527853012
1744883832089165000,2.9741650390625,8.773882865905762,2.909672260284424,-0.2835494875907898
1744883832105970000,2.990969970703125,8.820542335510254,2.9485557079315186,-0.34576287865638733
1744883832122791200,3.007791259765625,9.112466812133789,2.954537868499756,-0.3080759048461914
1744883832139601400,3.024601318359375,9.488738059997559,2.9623143672943115,-0.4666004180908203
1744883832156413000,3.041412841796875,9.764511108398438,3.135794162750244,-0.4001995921134949
1744883832173223400,3.058223388671875,10.0612211227417,3.008376359939575,-0.4588237404823303
1744883832190035000,3.075034912109375,10.248459815979004,2.937189817428589,-0.349352091550827
1744883832206845400,3.091845458984375,10.310074806213379,2.9102704524993896,-0.5694918036460876
1744883832223663400,3.108663330078125,10.223334312438965,2.8103702068328857,-0.8512466549873352
1744883832240465400,3.12546533203125,10.0612211227417,2.7762725353240967,-0.8895317912101746
1744883832257279200,3.142279296875,9.80937671661377,2.693121910095215,-0.8129615187644958
1744883832274089700,3.15908984375,9.5324068069458,2.6727828979492188,-0.8883354067802429
1744883832290900700,3.175900634765625,9.347561836242676,2.6039891242980957,-0.7214360237121582
1744883832307711700,3.192711669921875,9.272188186645508,2.204387903213501,-1.2526426315307617
1744883832324519700,3.209519775390625,9.230313301086426,2.757728099822998,-0.9397810697555542
1744883832341324500,3.226324462890625,9.029315948486328,2.9700911045074463,-0.6616154313087463
1744883832358129000,3.24312890625,8.967700958251953,3.0352954864501953,-0.35533416271209717
1744883832374942700,3.259942626953125,8.925827026367188,3.0484559535980225,-0.10169496387243271
1744883832391770400,3.276770263671875,8.97787094116211,3.129812002182007,-0.04426721855998039
1744883832408557300,3.293557373046875,9.011369705200195,3.0969107151031494,-0.11605189740657806
1744883832425388800,3.310388916015625,9.221938133239746,3.0071799755096436,-0.1698904037475586
1744883832442188000,3.32718798828125,9.34157943725586,2.9557342529296875,-0.2847459018230438
1744883832458998000,3.343998046875,9.437292098999023,2.9515466690063477,-0.26141586899757385
1744883832475822000,3.360822021484375,9.551549911499023,2.923431158065796,-0.2997010350227356
1744883832492633000,3.377633056640625,9.527621269226074,2.871387243270874,-0.42412781715393066
1744883832509448000,3.394447998046875,9.484550476074219,2.843271493911743,-0.5054838061332703
1744883832526255400,3.41125537109375,9.528220176696777,2.80977201461792,-0.49651068449020386
1744883832543065600,3.428065673828125,9.623932838439941,2.7762725353240967,-0.43908295035362244
1744883832559877000,3.444877197265625,9.67657470703125,2.7768707275390625,-0.4588237404823303
1744883832576688400,3.4616884765625,9.715457916259766,2.719442844390869,-0.4492524564266205
1744883832593495300,3.478495361328125,9.720243453979492,2.6434707641601562,-0.5216353535652161
1744883832610310000,3.495309814453125,9.66819953918457,2.6051857471466064,-0.5120640397071838
1744883832627121200,3.51212109375,9.501300811767578,2.5704896450042725,-0.5066801905632019
1744883832643932200,3.52893212890625,9.382257461547852,2.5698914527893066,-0.5306084156036377
1744883832660743700,3.54574365234375,9.300901412963867,2.578864574432373,-0.534795880317688
1744883832677554200,3.56255419921875,9.305686950683594,2.5740790367126465,-0.4773681163787842
1744883832694364400,3.579364501953125,9.354142189025879,2.531008243560791,-0.4492524564266205
1744883832711176700,3.5961767578125,9.34875774383545,2.541177749633789,-0.5162515044212341
1744883832727987700,3.61298779296875,9.367900848388672,2.541177749633789,-0.5641079545021057
1744883832744802600,3.629802490234375,9.392427444458008,2.50289249420166,-0.5306084156036377
1744883832761609200,3.646609130859375,9.421140670776367,2.4981069564819336,-0.4307080805301666
1744883832778418200,3.663418212890625,9.4121675491333,2.48315167427063,-0.3924229145050049
1744883832795231500,3.6802314453125,9.478569030761719,2.5124638080596924,-0.41156548261642456
1744883832812042000,3.6970419921875,9.550353050231934,2.5178475379943848,-0.43549370765686035
1744883832828842000,3.713842041015625,9.626923561096191,2.4987051486968994,-0.3978067636489868
1744883832845664500,3.73066455078125,9.641280174255371,2.513062000274658,-0.388235479593277
1744883832862475500,3.7474755859375,9.588040351867676,2.5465614795684814,-0.38763725757598877
1744883832879286300,3.764286376953125,9.507282257080078,2.555534601211548,-0.3732803463935852
1744883832896097500,3.78109765625,9.373284339904785,2.5501506328582764,-0.38225340843200684
1744883832912908500,3.797908447265625,9.272786140441895,2.5495524406433105,-0.41096729040145874
1744883832929706500,3.81470654296875,9.244071960449219,2.554338216781616,-0.41515472531318665
1744883832946530300,3.8315302734375,9.248857498168945,2.5495524406433105,-0.46779683232307434
1744883832963341600,3.848341552734375,9.305686950683594,2.5405795574188232,-0.5300102233886719
1744883832980149500,3.8651494140625,9.33440113067627,2.5220351219177246,-0.5401797294616699
1744883832996967200,3.88196728515625,9.358927726745605,2.4981069564819336,-0.4827519655227661
1744883833013774600,3.898774658203125,9.363713264465332,2.4885356426239014,-0.4731806814670563
1744883833030582300,3.915582275390625,9.334999084472656,2.4837498664855957,-0.49710890650749207
1744883833047396600,3.932396728515625,9.325428009033203,2.4981069564819336,-0.511465847492218
1744883833064211700,3.949211669921875,9.316454887390137,2.48315167427063,-0.47796630859375
1744883833081018600,3.9660185546875,9.311071395874023,2.5118656158447266,-0.4540380835533142
1744883833097830000,3.982829833984375,9.278169631958008,2.492722988128662,-0.46360939741134644
1744883833114638300,3.999638427734375,9.249456405639648,2.496910333633423,-0.46839502453804016
1744883833131455000,4.016455078125,9.220742225646973,2.4873390197753906,-0.4731806814670563
1744883833148262700,4.0332626953125,9.18724250793457,2.506481647491455,-0.4773681163787842
1744883833165072400,4.050072265625,9.17288589477539,2.5112674236297607,-0.4773681163787842
1744883833181886500,4.066886474609375,9.105886459350586,2.5010979175567627,-0.4486542344093323
1744883833198683400,4.083683349609375,9.053842544555664,2.4909284114837646,-0.4295116662979126
1744883833215507200,4.100507080078125,9.044271469116211,2.486142635345459,-0.4247260093688965
1744883833232318000,4.11731787109375,9.044271469116211,2.500499725341797,-0.4295116662979126
1744883833249129000,4.13412890625,9.063413619995117,2.510071039199829,-0.4103690981864929
1744883833265940700,4.150940673828125,9.1112699508667,2.5052852630615234,-0.38644084334373474
1744883833282750500,4.16775048828125,9.16869831085205,2.5196423530578613,-0.3152543902397156
1744883833299562200,4.184562255859375,9.245268821716309,2.486740827560425,-0.32961133122444153
1744883833316373200,4.201373291015625,9.259625434875488,2.5250260829925537,-0.3152543902397156
1744883833333184800,4.218184814453125,9.216554641723633,2.472982168197632,-0.4205385744571686
1744883833349995000,4.2349951171875,9.17288589477539,2.5298118591308594,-0.3529413342475891
1744883833366803500,4.251803466796875,9.187840461730957,2.562713146209717,-0.2626122832298279
1744883833383619600,4.26861962890625,9.273982048034668,2.520240545272827,-0.25782662630081177
1744883833400426200,4.28542626953125,9.245268821716309,2.5250260829925537,-0.31046873331069946
1744883833417242600,4.30224267578125,9.244669914245605,2.5393829345703125,-0.3200400173664093
1744883833434050600,4.319050537109375,9.177671432495117,2.5770699977874756,-0.33858439326286316
1744883833450861300,4.335861328125,9.206384658813477,2.5920250415802,-0.33858439326286316
1744883833467672800,4.3526728515625,9.192028045654297,2.586641311645508,-0.30508488416671753
1744883833484480300,4.369480224609375,9.182456970214844,2.5537400245666504,-0.3481557071208954
1744883833501294800,4.386294921875,9.129815101623535,2.5674986839294434,-0.381655216217041
1744883833518108400,4.4031083984375,9.005388259887695,2.5669004917144775,-0.37148571014404297
1744883833534903800,4.41990380859375,8.919844627380371,2.5902304649353027,-0.3475574851036072
1744883833551714000,4.436714111328125,8.824131965637207,2.5944180488586426,-0.3284149169921875
1744883833568525300,4.453525390625,8.766703605651855,2.589632272720337,-0.34217363595962524
1744883833585345300,4.47034521484375,8.790632247924805,2.5609183311462402,-0.357128769159317
1744883833602161000,4.487160888671875,8.85763168334961,2.5423741340637207,-0.3762713670730591
1744883833618961200,4.503961181640625,8.924032211303711,2.562114953994751,-0.4097708761692047
1744883833635778300,4.5207783203125,8.900103569030762,2.586043119430542,-0.41934216022491455
1744883833652593400,4.537593505859375,8.880961418151855,2.5950162410736084,-0.3762713670730591
1744883833669404700,4.55440478515625,8.861818313598633,2.623729944229126,-0.3517449200153351
1744883833686215400,4.57121533203125,8.85643482208252,2.662015199661255,-0.3900300860404968
1744883833703027000,4.58802685546875,8.875576972961426,2.6811578273773193,-0.39481574296951294
1744883833719835400,4.60483544921875,8.880363464355469,2.6907291412353516,-0.3852444589138031
1744883833736649000,4.62164892578125,8.889934539794922,2.6668007373809814,-0.4091726839542389
1744883833753461800,4.638461669921875,8.889934539794922,2.638087034225464,-0.4139583110809326
1744883833770250800,4.655250732421875,8.85643482208252,2.6524438858032227,-0.4043870270252228
1744883833787081700,4.672081787109375,8.837890625,2.6428725719451904,-0.380458801984787
1744883833803893200,4.688893310546875,8.914461135864258,2.6045875549316406,-0.4001995921134949
1744883833820713700,4.705713623046875,8.861818313598633,2.5663022994995117,-0.4289134442806244
1744883833837512200,4.72251220703125,8.814560890197754,2.551945447921753,-0.4289134442806244
1744883833854324200,4.73932421875,8.843274116516113,2.551945447921753,-0.39062830805778503
1744883833871128000,4.756128173828125,8.685946464538574,2.56510591506958,-0.3517449200153351
1744883833887947800,4.77294775390625,8.609973907470703,2.507079839706421,-0.2991028428077698
1744883833904755500,4.78975537109375,8.4771728515625,2.4017956256866455,-0.3852444589138031
1744883833921573000,4.806572998046875,8.516056060791016,2.4155545234680176,-0.251844584941864
1744883833938378000,4.8233779296875,8.678768157958984,2.420340061187744,-0.11844471842050552
1744883833955195100,4.840195068359375,8.763712882995605,2.4975085258483887,-0.16151553392410278
1744883833972003000,4.857003173828125,8.891130447387695,2.585444927215576,-0.31405797600746155
1744883833988801000,4.873801025390625,9.037691116333008,2.682354211807251,-0.45224347710609436
1744883834005637000,4.89063720703125,9.251849174499512,2.712862730026245,-0.5341976284980774
1744883834022435600,4.907435546875,9.652048110961914,2.7349963188171387,-0.711864709854126
1744883834039247400,4.924247314453125,9.947562217712402,2.6703901290893555,-0.8847461938858032
1744883834056058000,4.94105810546875,10.130014419555664,2.5710878372192383,-0.8955138921737671
1744883834072869400,4.957869384765625,10.116853713989258,2.479562520980835,-0.776470959186554
1744883834089680100,4.97468017578125,10.017552375793457,2.4640090465545654,-0.6376872062683105
1744883834106491100,4.9914912109375,9.883553504943848,2.5250260829925537,-0.5988038778305054
1744883834123302100,5.00830224609375,9.587442398071289,2.5046870708465576,-0.5790630578994751
1744883834140114000,5.025114013671875,9.235696792602539,2.4161527156829834,-0.49710890650749207
1744883834156915200,5.041915283203125,8.93240737915039,2.2887349128723145,-0.28654050827026367
1744883834173733000,5.058733154296875,8.728418350219727,2.1960129737854004,-0.16749759018421173
1744883834190546400,5.07554638671875,8.6907320022583,2.1720848083496094,-0.12921242415905
1744883834207357700,5.092357666015625,8.786444664001465,2.1816561222076416,-0.08614161610603333
1744883834224157400,5.109157470703125,8.977272033691406,2.2019951343536377,-0.09152546525001526
1744883834240969200,5.12596923828125,9.148359298706055,2.1894326210021973,-0.20159530639648438
1744883834257787100,5.142787109375,9.309874534606934,2.17627215385437,-0.364905446767807
1744883834274601700,5.159601806640625,9.376275062561035,2.200798511505127,-0.4175475537776947
1744883834291415800,5.176415771484375,9.390034675598145,2.273181438446045,-0.47916272282600403
1744883834308220400,5.193220458984375,9.350552558898926,2.359323024749756,-0.5312066078186035
1744883834325037600,5.21003759765625,9.239286422729492,2.459223508834839,-0.6017948985099792
1744883834341825300,5.2268251953125,9.028717994689941,2.520240545272827,-0.5868397355079651
1744883834358643700,5.243643798828125,8.775676727294922,2.562114953994751,-0.5479564070701599
1744883834375468300,5.26046826171875,8.536993026733398,2.5603201389312744,-0.5617151260375977
1744883834392279000,5.277279052734375,8.436494827270508,2.5363919734954834,-0.5659025311470032
1744883834409089800,5.29408984375,8.432307243347168,2.5357937812805176,-0.5042873620986938
1744883834425900300,5.310900390625,8.571090698242188,2.5363919734954834,-0.45164528489112854
1744883834442699300,5.32769921875,8.70927619934082,2.551347255706787,-0.47617170214653015
1744883834459522300,5.344522216796875,8.933603286743164,2.5435705184936523,-0.5006981492042542
1744883834476334300,5.361334228515625,9.119645118713379,2.544766902923584,-0.5443671345710754
1744883834493144800,5.378144775390625,9.214759826660156,2.5740790367126465,-0.5587241053581238
1744883834509955800,5.394955810546875,9.19980525970459,2.6500511169433594,-0.5389832854270935
1744883834526766800,5.411766845703125,9.10827922821045,2.7260231971740723,-0.5335994362831116
1744883834543578000,5.428578125,8.94556713104248,2.767897605895996,-0.5042873620986938
1744883834560388900,5.445388916015625,8.811569213867188,2.796013355255127,-0.5419743061065674
1744883834577197000,5.462197021484375,8.71645450592041,2.8002007007598877,-0.5276173949241638
1744883834594014500,5.479014404296875,8.692526817321777,2.8002007007598877,-0.5084748268127441
1744883834610822400,5.495822509765625,8.71645450592041,2.771486759185791,-0.48454657196998596
1744883834627632600,5.512632568359375,8.779266357421875,2.7385854721069336,-0.4420739710330963
1744883834644441000,5.529441162109375,8.799007415771484,2.671586513519287,-0.45643091201782227
1744883834661258200,5.54625830078125,8.770891189575195,2.6141586303710938,-0.4713860750198364
1744883834678066700,5.563066650390625,8.723034858703613,2.5950162410736084,-0.4899304509162903
1744883834694877200,5.579877197265625,8.708678245544434,2.6183462142944336,-0.4468596279621124
1744883834711688200,5.596688232421875,8.708678245544434,2.637488842010498,-0.4085744619369507
1744883834728513500,5.613513427734375,8.727222442626953,2.6949164867401123,-0.4372883439064026
1744883834745310500,5.630310546875,8.774480819702148,2.733201742172241,-0.4420739710330963
1744883834762121200,5.647121337890625,8.86062240600586,2.7433712482452393,-0.4133601188659668
1744883834778919200,5.663919189453125,8.95095157623291,2.767897605895996,-0.4091726839542389
1744883834795743700,5.68074365234375,8.988637924194336,2.844467878341675,-0.45164528489112854
1744883834812551700,5.6975517578125,9.09392261505127,2.830709218978882,-0.39960137009620667
1744883834829365000,5.714364990234375,9.227920532226562,2.826521635055542,-0.3523431420326233
1744883834846176300,5.73117626953125,9.357132911682129,2.8079774379730225,-0.3475574851036072
1744883834862969600,5.747969482421875,9.381061553955078,2.7840490341186523,-0.3720839321613312
1744883834879798800,5.764798828125,9.376275062561035,2.7696921825408936,-0.3529413342475891
1744883834896609500,5.781609619140625,9.223134994506836,2.764308452606201,-0.4001995921134949
1744883834913407500,5.798407470703125,9.10409164428711,2.7589244842529297,-0.39481574296951294
1744883834930231600,5.8152314453125,9.046664237976074,2.7493531703948975,-0.39481574296951294
1744883834947042800,5.832042724609375,9.099306106567383,2.7349963188171387,-0.4378865361213684
1744883834963853300,5.848853271484375,9.19980525970459,2.7260231971740723,-0.42412781715393066
1744883834980664600,5.86566455078125,9.257232666015625,2.688336133956909,-0.4384847581386566
1744883834997475800,5.882475830078125,9.214759826660156,2.669193744659424,-0.4336991012096405
1744883835014283500,5.899283447265625,9.061619758605957,2.667997360229492,-0.4145565330982208
1744883835031100700,5.9161005859375,8.884550094604492,2.6913273334503174,-0.4426721930503845
1744883835047908900,5.932908935546875,8.82233715057373,2.7290141582489014,-0.4468596279621124
1744883835064717000,5.949717041015625,8.788837432861328,2.7529425621032715,-0.4325026869773865
1744883835081533700,5.96653369140625,8.865407943725586,2.7529425621032715,-0.4181457459926605
1744883835098332000,5.983331787109375,8.974879264831543,2.7535407543182373,-0.3900300860404968
1744883835115152600,6.000152587890625,9.08973503112793,2.7349963188171387,-0.4091726839542389
1744883835131964000,6.0169638671875,9.218947410583496,2.740380048751831,-0.3762713670730591
1744883835148768300,6.033768310546875,9.281160354614258,2.7355945110321045,-0.357128769159317
1744883835165585400,6.05058544921875,9.2859468460083,2.740978240966797,-0.3858426511287689
1744883835182397400,6.0673974609375,9.227920532226562,2.754737138748169,-0.39541393518447876
1744883835199214600,6.084214599609375,9.171091079711914,2.768495798110962,-0.36191442608833313
1744883835216019000,6.10101904296875,9.142376899719238,2.792423963546753,-0.3517449200153351
1744883835232830000,6.117829833984375,9.156734466552734,2.7828526496887207,-0.36670008301734924
1744883835249641200,6.13464111328125,9.19980525970459,2.754737138748169,-0.3858426511287689
1744883835266452000,6.151451904296875,9.209376335144043,2.7212376594543457,-0.4049852192401886
1744883835283246800,6.168246826171875,9.21416187286377,2.6835505962371826,-0.4289134442806244
1744883835300073700,6.18507373046875,9.209376335144043,2.702693223953247,-0.46719861030578613
1744883835316885000,6.201885009765625,9.223732948303223,2.7074787616729736,-0.4576273262500763
1744883835333696000,6.218696044921875,9.242277145385742,2.7218358516693115,-0.4576273262500763
1744883835350507300,6.23550732421875,9.275776863098145,2.7122645378112793,-0.46719861030578613
1744883835367314400,6.252314453125,9.309276580810547,2.7080769538879395,-0.4911268353462219
1744883835384134000,6.2691337890625,9.352347373962402,2.6985056400299072,-0.49172505736351013
1744883835400938500,6.2859384765625,9.385847091674805,2.6937201023101807,-0.43908295035362244
1744883835417751600,6.30275146484375,9.395418167114258,2.712862730026245,-0.41994038224220276
1744883835434546200,6.319546142578125,9.462417602539062,2.6799614429473877,-0.4486542344093323
1744883835451376400,6.33637646484375,9.458230018615723,2.651247501373291,-0.4492524564266205
1744883835468184300,6.353184326171875,9.430113792419434,2.60339093208313,-0.4253242313861847
1744883835484995000,6.3699951171875,9.41037368774414,2.6315066814422607,-0.4205385744571686
1744883835501803000,6.386802978515625,9.267401695251465,2.6261229515075684,-0.41515472531318665
1744883835518607600,6.403607666015625,9.153144836425781,2.630310297012329,-0.4145565330982208
1744883835535425800,6.42042578125,9.119645118713379,2.620738983154297,-0.4289134442806244
1744883835552237000,6.437237060546875,9.1716890335083,2.606980323791504,-0.4630111753940582
1744883835569036500,6.45403662109375,9.343374252319336,2.6315066814422607,-0.4821537733078003
1744883835585864400,6.470864501953125,9.534201622009277,2.651845693588257,-0.511465847492218
1744883835602669000,6.4876689453125,9.687342643737793,2.647658348083496,-0.4827519655227661
1744883835619487200,6.5044873046875,9.648459434509277,2.685943365097046,-0.4875376224517822
1744883835636294100,6.521294189453125,9.601201057434082,2.6524438858032227,-0.5306084156036377
1744883835653119000,6.538118896484375,9.69212818145752,2.695514678955078,-0.3966103494167328
1744883835669919200,6.554919189453125,9.667601585388184,2.7050859928131104,-0.41575294733047485
1744883835686727200,6.57172705078125,9.629316329956055,2.7146573066711426,-0.4540380835533142
1744883835703541000,6.588541015625,9.55753231048584,2.723630428314209,-0.4534398913383484
1744883835720349700,6.605349609375,9.505488395690918,2.7038896083831787,-0.4534398913383484
1744883835737161000,6.622160888671875,9.486345291137695,2.7086751461029053,-0.43908295035362244
1744883835753971700,6.6389716796875,9.448060035705566,2.7086751461029053,-0.41994038224220276
1744883835770769700,6.655769775390625,9.381659507751465,2.688934564590454,-0.41994038224220276
1744883835787594000,6.672593994140625,9.29611587524414,2.6596224308013916,-0.4007977843284607
1744883835804401700,6.689401611328125,9.176474571228027,2.65423846244812,-0.39062830805778503
1744883835821217300,6.70621728515625,9.110074043273926,2.65842604637146,-0.37148571014404297
1744883835838030600,6.723030517578125,9.129216194152832,2.6775684356689453,-0.29012975096702576
1744883835854833000,6.7398330078125,9.210572242736816,2.667997360229492,-0.2667997181415558
1744883835871639600,6.7566396484375,9.353543281555176,2.6638097763061523,-0.267397940158844
1744883835888452000,6.7734521484375,9.510871887207031,2.665006160736084,-0.3152543902397156
1744883835905267700,6.790267822265625,9.587442398071289,2.6703901290893555,-0.33918261528015137
1744883835922085400,6.80708544921875,9.558728218078613,2.6608188152313232,-0.3152543902397156
1744883835938878500,6.82387841796875,9.449256896972656,2.6697919368743896,-0.31046873331069946
1744883835955707400,6.840707275390625,9.239286422729492,2.667997360229492,-0.23330020904541016
1744883835972501800,6.857501708984375,8.996415138244629,2.6709883213043213,-0.10408778488636017
1744883835989325800,6.874325927734375,8.886942863464355,2.674577474594116,-0.050847481936216354
1744883836006123800,6.891123779296875,8.97248649597168,2.7038896083831787,-0.06520441919565201
1744883836022948600,6.907948486328125,9.186644554138184,2.7391836643218994,-0.1423729509115219
1744883836039743000,6.924742919921875,9.481559753417969,2.7840490341186523,-0.2667997181415558
1744883836056570000,6.941570068359375,9.643074989318848,2.80977201461792,-0.4486542344093323
1744883836073381000,6.958381103515625,9.66221809387207,2.7535407543182373,-0.5491527915000916
1744883836090179300,6.975179443359375,9.585647583007812,2.7146573066711426,-0.5874379873275757
1744883836106995000,6.991994873046875,9.499505996704102,2.7146573066711426,-0.6161518096923828
1744883836123814700,7.008814697265625,9.522835731506348,2.748156785964966,-0.6442674994468689
1744883836140613600,7.025613525390625,9.54197883605957,2.772084951400757,-0.6161518096923828
1744883836157437000,7.04243701171875,9.55214786529541,2.748156785964966,-0.5826523303985596
1744883836174247000,7.059246826171875,9.519247055053711,2.7050859928131104,-0.592223584651947
1744883836191058200,7.07605810546875,9.452845573425293,2.627917528152466,-0.5539384484291077
1744883836207877000,7.092877197265625,9.2919282913208,2.531008243560791,-0.5066801905632019
1744883836224677600,7.109677734375,9.20159912109375,2.4873390197753906,-0.49172505736351013
1744883836241494000,7.126493896484375,8.97248649597168,2.510071039199829,-0.44805604219436646
1744883836258302700,7.143302734375,8.900702476501465,2.5190439224243164,-0.4097708761692047
1744883836275113500,7.160113525390625,8.929415702819824,2.538186550140381,-0.4049852192401886
1744883836291924700,7.1769248046875,9.153742790222168,2.5489542484283447,-0.44386860728263855
1744883836308722400,7.193722412109375,9.497113227844238,2.527418851852417,-0.47796630859375
1744883836325546500,7.21054638671875,9.893125534057617,2.568096876144409,-0.5509474277496338
1744883836342342700,7.2273427734375,10.235897064208984,2.641676187515259,-0.5802595019340515
1744883836359168800,7.244168701171875,10.445268630981445,2.700300455093384,-0.5467599630355835
1744883836375979300,7.260979248046875,10.49791145324707,2.7290141582489014,-0.5084748268127441
1744883836392790300,7.277790283203125,10.445268630981445,2.7625136375427246,-0.5419743061065674
1744883836409589200,7.29458935546875,10.234102249145508,2.8283164501190186,-0.5694918036460876
1744883836426412800,7.311412841796875,9.981060981750488,2.864806890487671,-0.5353940725326538
1744883836443210200,7.328210205078125,9.765707015991211,2.9730820655822754,-0.4342973232269287
1744883836460034800,7.345034912109375,9.550951957702637,2.967100143432617,-0.4145565330982208
1744883836476845600,7.361845458984375,9.32722282409668,2.822932481765747,-0.47676992416381836
1744883836493656800,7.37865673828125,9.095717430114746,2.572284460067749,-0.43908295035362244
1744883836510454000,7.3954541015625,8.898308753967285,2.3365912437438965,-0.31046873331069946
1744883836527278600,7.412278564453125,8.903693199157715,2.2169501781463623,-0.3445664644241333
1744883836544067300,7.4290673828125,8.821739196777344,2.2366909980773926,-0.46360939741134644
1744883836560898000,7.44589794921875,8.999405860900879,2.227717876434326,-0.38763725757598877
1744883836577711400,7.46271142578125,9.203991889953613,2.2911276817321777,-0.38285163044929504
1744883836594519600,7.47951953125,9.484550476074219,2.3742783069610596,-0.46480581164360046
1744883836611332600,7.49633251953125,9.688538551330566,2.4526431560516357,-0.584446907043457
1744883836628145000,7.513144775390625,9.725028991699219,2.5393829345703125,-0.7082754969596863
1744883836644944100,7.529944091796875,9.562915802001953,2.5812573432922363,-0.6454638838768005
1744883836661763600,7.546763671875,9.315258979797363,2.6261229515075684,-0.43908295035362244
1744883836678569200,7.5635693359375,9.09093189239502,2.672184705734253,-0.3044866919517517
1744883836695389400,7.580389404296875,8.94257640838623,2.7050859928131104,-0.26081767678260803
1744883836712200700,7.59720068359375,8.961718559265137,2.6907291412353516,-0.2949153780937195
1744883836729010000,7.614010009765625,9.138189315795898,2.6494529247283936,-0.4289134442806244
1744883836745809000,7.630808837890625,9.481559753417969,2.6039891242980957,-0.5688936114311218
1744883836762630000,7.6476298828125,9.868000984191895,2.5974090099334717,-0.6556333899497986
1744883836779447000,7.664447021484375,10.192228317260742,2.651845693588257,-0.6993024349212646
1744883836796255200,7.681255126953125,10.344770431518555,2.672184705734253,-0.7328019142150879
1744883836813066000,7.69806591796875,10.315458297729492,2.733799934387207,-0.7567301392555237
1744883836829877500,7.71487744140625,10.061819076538086,2.746960401535034,-0.7561319470405579
1744883836846687700,7.731687744140625,9.747760772705078,2.754138946533203,-0.5880361795425415
1744883836863499000,7.7484990234375,9.404391288757324,2.746960401535034,-0.4630111753940582
1744883836880310300,7.765310302734375,9.175278663635254,2.7601208686828613,-0.48095735907554626
1744883836897121800,7.782121826171875,9.10827922821045,2.7451658248901367,-0.48095735907554626
1744883836913932300,7.798932373046875,9.232706069946289,2.7553353309631348,-0.4624129831790924
1744883836930743300,7.815743408203125,9.509675025939941,2.746960401535034,-0.4534398913383484
1744883836947551000,7.832551025390625,9.787242889404297,2.681756019592285,-0.4019941985607147
1744883836964368100,7.8493681640625,9.9409818649292,2.606382131576538,-0.4695914387702942
1744883836981177300,7.86617724609375,10.112068176269531,2.641077995300293,-0.5318048596382141
1744883836997987600,7.882987548828125,10.107282638549805,2.7122645378112793,-0.4217349886894226
1744883837014798600,7.899798583984375,9.897313117980957,2.720041036605835,-0.37806597352027893
1744883837031609900,7.91660986328125,9.56770133972168,2.7182464599609375,-0.36311084032058716
1744883837048417300,7.933417236328125,9.146564483642578,2.764308452606201,-0.44745782017707825
1744883837065231600,7.950231689453125,8.811569213867188,2.8103702068328857,-0.5132604837417603
1744883837082042600,7.967042724609375,8.562715530395508,2.8809585571289062,-0.48394837975502014
1744883837098840600,7.983840576171875,8.429315567016602,2.908475875854492,-0.4163511395454407
1744883837115664600,8.00066455078125,8.458029747009277,2.8797619342803955,-0.38344982266426086
1744883837132475600,8.0174755859375,8.650053977966309,2.8277182579040527,-0.35533416271209717
1744883837149283800,8.034283935546876,8.985647201538086,2.705684185028076,-0.3278166949748993
1744883837166103600,8.051103515625,9.2919282913208,2.6350958347320557,-0.33858439326286316
1744883837182905600,8.067905517578126,9.549755096435547,2.5698914527893066,-0.35413774847984314
1744883837199719700,8.0847197265625,9.673583984375,2.6183462142944336,-0.33020952343940735
1744883837216531000,8.101531005859375,9.687342643737793,2.7188446521759033,-0.3158525824546814
1744883837233342200,8.11834228515625,9.595218658447266,2.8426733016967773,-0.30508488416671753
1744883837250152400,8.13515234375,9.460622787475586,2.947359323501587,-0.37148571014404297
1744883837266947000,8.151947021484375,9.292527198791504,3.0041887760162354,-0.4707878530025482
1744883837283779000,8.168779052734376,9.22433090209961,3.0520453453063965,-0.5802595019340515
1744883837300586200,8.185586181640625,9.190832138061523,3.033500909805298,-0.656829833984375
1744883837317396500,8.202396484375,9.196215629577637,2.9760732650756836,-0.6711867451667786
1744883837334208000,8.2192080078125,9.220144271850586,2.943171739578247,-0.7381857633590698
1744883837351019000,8.23601904296875,9.263215065002441,2.87198543548584,-0.786640465259552
1744883837367817000,8.25281689453125,9.33559799194336,2.8289146423339844,-0.729810893535614
1744883837384637700,8.2696376953125,9.407979965209961,2.795415163040161,-0.6203392744064331
1744883837401455400,8.286455322265626,9.470791816711426,2.7427730560302734,-0.5491527915000916
1744883837418249700,8.303249755859374,9.53360366821289,2.709273338317871,-0.5491527915000916
1744883837435074600,8.320074462890625,9.55753231048584,2.6907291412353516,-0.5395814776420593
1744883837451884800,8.336884765625,9.57188892364502,2.7050859928131104,-0.5108676552772522
1744883837468685000,8.35368505859375,9.552745819091797,2.733201742172241,-0.43908295035362244
1744883837485502700,8.370502685546874,9.480961799621582,2.761317253112793,-0.4007977843284607
1744883837502322000,8.387322021484374,9.385248184204102,2.789433002471924,-0.3762713670730591
1744883837519129900,8.4041298828125,9.290133476257324,2.7840490341186523,-0.37148571014404297
1744883837535940400,8.4209404296875,9.266205787658691,2.7930221557617188,-0.37148571014404297
1744883837552751000,8.437751220703126,9.294919967651367,2.7930221557617188,-0.3475574851036072
1744883837569562600,8.454562744140626,9.385847091674805,2.774477958679199,-0.3194418251514435
1744883837586373000,8.471373046875,9.519845008850098,2.7565317153930664,-0.3290131092071533
1744883837603181300,8.488181396484375,9.653244972229004,2.7523441314697266,-0.33439695835113525
1744883837619998000,8.504998046875,9.748957633972168,2.7433712482452393,-0.3487538993358612
1744883837636806700,8.521806640625,9.825528144836426,2.7391836643218994,-0.349352091550827
1744883837653617000,8.538616943359376,9.854242324829102,2.734398126602173,-0.38285163044929504
1744883837670428200,8.55542822265625,9.882357597351074,2.7631118297576904,-0.4019941985607147
1744883837687239400,8.572239501953124,9.90149974822998,2.7349963188171387,-0.4307080805301666
1744883837704047000,8.589047119140625,9.892526626586914,2.667997360229492,-0.4546363055706024
1744883837720864300,8.6058642578125,9.859027862548828,2.6159534454345703,-0.5694918036460876
1744883837737672400,8.62267236328125,9.730413436889648,2.6009981632232666,-0.5647061467170715
1744883837754480000,8.639480224609375,9.506684303283691,2.5842485427856445,-0.4253242313861847
1744883837771312600,8.656312744140624,9.253045082092285,2.6261229515075684,-0.41994038224220276
1744883837788105200,8.673105224609374,9.038289070129395,2.6249263286590576,-0.45284169912338257
1744883837804915500,8.68991552734375,8.990432739257812,2.6195425987243652,-0.4289134442806244
1744883837821727200,8.706727294921874,9.110074043273926,2.6111676692962646,-0.4289134442806244
1744883837838529300,8.723529296875,9.358329772949219,2.6362924575805664,-0.4055834412574768
1744883837855352000,8.74035205078125,9.577272415161133,2.6943182945251465,-0.35832518339157104
1744883837872160300,8.75716015625,9.648459434509277,2.74755859375,-0.33918261528015137
1744883837888960300,8.773960205078126,9.605986595153809,2.794816732406616,-0.24825534224510193
1744883837905782500,8.790782470703125,9.419346809387207,2.83669114112854,-0.22851456701755524
1744883837922593300,8.80759326171875,9.313464164733887,2.8935208320617676,-0.2949153780937195
1744883837939392800,8.824392822265626,9.28893756866455,2.9653055667877197,-0.31824541091918945
1744883837956218600,8.841218505859375,9.407979965209961,2.970689296722412,-0.32303106784820557
1744883837973041000,8.858041015625,9.479764938354492,2.9282166957855225,-0.3475574851036072
1744883837989822200,8.874822265625,9.681360244750977,2.843271493911743,-0.3433700501918793
1744883838006639900,8.891639892578125,9.619147300720215,2.848057270050049,-0.38644084334373474
1744883838023459600,8.90845947265625,9.381061553955078,2.7846474647521973,-0.37148571014404297
1744883838040267800,8.925267822265624,9.070592880249023,2.782254457473755,-0.34217363595962524
1744883838057084400,8.94208447265625,8.816953659057617,2.795415163040161,-0.3846462368965149
1744883838073892600,8.958892578125,8.82114028930664,2.843869686126709,-0.43190449476242065
1744883838090703600,8.97570361328125,9.007183074951172,2.888136863708496,-0.4468596279621124
1744883838107508500,8.992508544921876,9.217751502990723,2.8839495182037354,-0.36610186100006104
1744883838124321500,9.009321533203124,9.318249702453613,2.8791637420654297,-0.28534409403800964
1744883838141138000,9.026137939453125,9.227322578430176,2.902493953704834,-0.33738797903060913
1744883838157951000,9.042950927734376,9.217751502990723,2.9359934329986572,-0.2991028428077698
1744883838174759000,9.059759033203125,9.297910690307617,3.008376359939575,-0.275174617767334
1744883838191569400,9.0765693359375,9.455238342285156,3.0185458660125732,-0.31824541091918945
1744883838208367600,9.09336767578125,9.713065147399902,3.005983352661133,-0.357128769159317
1744883838225188900,9.11018896484375,9.856635093688965,2.964108943939209,-0.39122650027275085
1744883838242006000,9.127006103515624,9.790233612060547,2.8827531337738037,-0.4342973232269287
1744883838258801200,9.14380126953125,9.561718940734863,2.8241288661956787,-0.44386860728263855
1744883838275624700,9.160624755859375,9.294321060180664,2.8079774379730225,-0.44327038526535034
1744883838292436000,9.17743603515625,9.126823425292969,2.836092948913574,-0.47617170214653015
1744883838309234200,9.194234130859375,9.131608963012695,2.864806890487671,-0.45643091201782227
1744883838326058000,9.21105810546875,9.236893653869629,2.827120065689087,-0.4905286431312561
1744883838342869000,9.227868896484376,9.32303524017334,2.789433002471924,-0.47198426723480225
1744883838359680000,9.244679931640626,9.352945327758789,2.7361927032470703,-0.36251261830329895
1744883838376492300,9.2614921875,9.367302894592285,2.7361927032470703,-0.31465616822242737
1744883838393300700,9.27830078125,9.333803176879883,2.7595226764678955,-0.26201409101486206
1744883838410113000,9.295113037109376,9.238089561462402,2.7828526496887207,-0.23748764395713806
1744883838426923800,9.311923828125,9.119047164916992,2.815753936767578,-0.19920247793197632
1744883838443734500,9.328734619140626,9.004191398620605,2.8384859561920166,-0.15074782073497772
1744883838460546000,9.345546142578126,8.937192916870117,2.833700180053711,-0.21774685382843018
1744883838477357300,9.362357421875,8.974281311035156,2.8965117931365967,-0.3032902777194977
1744883838494162200,9.379162109375,9.169296264648438,2.9312076568603516,-0.34217363595962524
1744883838510979300,9.395979248046874,9.422337532043457,2.9425735473632812,-0.3756731450557709
1744883838527789800,9.412789794921874,9.69930648803711,2.905484914779663,-0.38644084334373474
1744883838544598000,9.429597900390625,9.957731246948242,2.854637384414673,-0.38763725757598877
1744883838561415700,9.446415771484375,10.063015937805176,2.8313074111938477,-0.4019941985607147
1744883838578223600,9.4632236328125,10.072587013244629,2.8456642627716064,-0.4259224236011505
1744883838595044900,9.480044921875,9.996614456176758,2.840280532836914,-0.32542386651039124
1744883838611845000,9.49684521484375,9.91107177734375,2.8109683990478516,-0.27756741642951965
1744883838628643000,9.51364306640625,9.849455833435059,2.772084951400757,-0.2584248483181
1744883838645454300,9.530454345703125,9.744770050048828,2.7044878005981445,-0.2727817893028259
1744883838662278100,9.547278076171875,9.616754531860352,2.641676187515259,-0.2871387302875519
1744883838679089700,9.564089599609375,9.512067794799805,2.6219353675842285,-0.23449662327766418
1744883838695900400,9.580900390625,9.378668785095215,2.606382131576538,-0.1860419660806656
1744883838712711400,9.59771142578125,9.273384094238281,2.6009981632232666,-0.19561325013637543
1744883838729522200,9.614522216796875,9.297910690307617,2.562713146209717,-0.15314064919948578
1744883838746317000,9.631317138671875,9.211769104003906,2.562713146209717,-0.18125630915164948
1744883838763132000,9.6481318359375,9.192625999450684,2.59621262550354,-0.21954147517681122
1744883838779958800,9.664958740234376,9.18724250793457,2.6386852264404297,-0.16151553392410278
1744883838796766200,9.68176611328125,9.18724250793457,2.6769702434539795,-0.17587246000766754
1744883838813577500,9.698577392578125,9.200403213500977,2.7110681533813477,-0.2997010350227356
1744883838830388200,9.71538818359375,9.267401695251465,2.692523717880249,-0.28115665912628174
1744883838847186700,9.732186767578124,9.329615592956543,2.702693223953247,-0.28594231605529785
1744883838864010500,9.749010498046875,9.396016120910645,2.736790895462036,-0.3433700501918793
1744883838880821200,9.7658212890625,9.45763111114502,2.765504837036133,-0.3577269911766052
1744883838897632500,9.782632568359375,9.54796028137207,2.775674343109131,-0.33858439326286316
1744883838914441000,9.79944091796875,9.605388641357422,2.7661030292510986,-0.33439695835113525
1744883838931257300,9.81625732421875,9.64367389678955,2.74755859375,-0.372682124376297
1744883838948065500,9.8330654296875,9.682557106018066,2.733201742172241,-0.33918261528015137
1744883838964876800,9.849876708984375,9.634700775146484,2.713460922241211,-0.2961117923259735
1744883838981687800,9.866687744140625,9.544371604919434,2.7080769538879395,-0.267397940158844
1744883838998512400,9.883512451171875,9.458230018615723,2.6985056400299072,-0.28175488114356995
1744883839015310000,9.90031005859375,9.439684867858887,2.6841487884521484,-0.2961117923259735
1744883839032120600,9.91712060546875,9.473184585571289,2.641077995300293,-0.27696922421455383
1744883839048919000,9.9339189453125,9.559925079345703,2.5938198566436768,-0.27756741642951965
1744883839065742600,9.95074267578125,9.650253295898438,2.60339093208313,-0.2632105052471161
1744883839082553600,9.9675537109375,9.607781410217285,2.5980072021484375,-0.20099709928035736
1744883839099364900,9.98436474609375,9.46899700164795,2.6213371753692627,-0.2153540402650833
1744883839116179500,10.001179443359375,9.287142753601074,2.659024238586426,-0.22851456701755524
1744883839132982800,10.017982666015625,9.196215629577637,2.7110681533813477,-0.24287149310112
1744883839149798000,10.0347978515625,9.243474006652832,2.7397818565368652,-0.2476571500301361
1744883839166608600,10.051608642578126,9.381659507751465,2.7361927032470703,-0.25244277715682983
1744883839183420000,10.068419921875,9.530014038085938,2.727219581604004,-0.25782662630081177
1744883839200231200,10.085231201171876,9.644869804382324,2.6799614429473877,-0.2919243574142456
1744883839217040000,10.102039794921875,9.678369522094727,2.675773859024048,-0.30628129839897156
1744883839233855000,10.11885498046875,9.672985076904297,2.68534517288208,-0.3445664644241333
1744883839250664200,10.135664306640624,9.625128746032715,2.7188446521759033,-0.3535395562648773
1744883839267471600,10.1524716796875,9.548559188842773,2.7278177738189697,-0.31046873331069946
1744883839284286000,10.169285888671874,9.477372169494629,2.7224340438842773,-0.30568310618400574
1744883839301099800,10.186099853515625,9.414560317993164,2.7553353309631348,-0.33379876613616943
1744883839317908000,10.202907958984374,9.419346809387207,2.765504837036133,-0.33858439326286316
1744883839334715400,10.21971533203125,9.443872451782227,2.7314071655273438,-0.2763710021972656
1744883839351533300,10.236533203125,9.477970123291016,2.693121910095215,-0.2386840581893921
1744883839368337700,10.253337646484376,9.421140670776367,2.654836654663086,-0.24825534224510193
1744883839385155300,10.2701552734375,9.325428009033203,2.6494529247283936,-0.21954147517681122
1744883839401959000,10.286958984375,9.239286422729492,2.6632115840911865,-0.2189432680606842
1744883839418765000,10.30376513671875,9.220144271850586,2.682354211807251,-0.20458634197711945
1744883839435585300,10.320585205078125,9.268000602722168,2.691925525665283,-0.20937198400497437
1744883839452397000,10.33739697265625,9.358329772949219,2.6877379417419434,-0.23389841616153717
1744883839469203200,10.354203125,9.430712699890137,2.664407968521118,-0.19561325013637543
1744883839486021600,10.371021728515625,9.468399047851562,2.678765058517456,-0.20997019112110138
1744883839502829300,10.387829345703125,9.473184585571289,2.6739792823791504,-0.21954147517681122
1744883839519640600,10.404640625,9.45882797241211,2.6979074478149414,-0.17168502509593964
1744883839536447700,10.42144775390625,9.454042434692383,2.7212376594543457,-0.15732808411121368
1744883839553265700,10.438265625,9.4061861038208,2.7116663455963135,-0.20518454909324646
1744883839570070000,10.455070068359374,9.42054271697998,2.7260231971740723,-0.15732808411121368
1744883839586891000,10.47189111328125,9.473184585571289,2.7212376594543457,-0.1381855010986328
1744883839603693800,10.48869384765625,9.511469841003418,2.726621389389038,-0.1333998590707779
1744883839620504300,10.50550439453125,9.535398483276367,2.7074787616729736,-0.12921242415905
1744883839637317600,10.522317626953125,9.549755096435547,2.7080769538879395,-0.17647066712379456
1744883839654128600,10.539128662109375,9.521040916442871,2.717050075531006,-0.15732808411121368
1744883839670939100,10.555939208984375,9.506684303283691,2.702693223953247,-0.14297115802764893
1744883839687750400,10.57275048828125,9.53061294555664,2.7122645378112793,-0.14356936514377594
1744883839704558300,10.589558349609375,9.478569030761719,2.678166627883911,-0.08614161610603333
1744883839721376000,10.6063759765625,9.388239860534668,2.6494529247283936,-0.14775680005550385
1744883839738183200,10.62318310546875,9.373882293701172,2.6111676692962646,-0.14356936514377594
1744883839754989800,10.63998974609375,9.427123069763184,2.5776681900024414,-0.12442677468061447
1744883839771805200,10.65680517578125,9.484550476074219,2.568695068359375,-0.12442677468061447
1744883839788603400,10.673603271484374,9.522237777709961,2.5740790367126465,-0.1866401731967926
1744883839805424000,10.690424072265625,9.512666702270508,2.583052158355713,-0.1579262912273407
1744883839822225000,10.707224853515624,9.469595909118652,2.596810817718506,-0.09571290761232376
1744883839839049500,10.724049560546876,9.440881729125977,2.6159534454345703,-0.08614161610603333
1744883839855860500,10.740860595703126,9.517452239990234,2.630908489227295,-0.12442677468061447
1744883839872658700,10.75765869140625,9.636494636535645,2.650649309158325,-0.11485548317432404
1744883839889480000,10.77447998046875,9.751350402832031,2.6464617252349854,-0.10588239878416061
1744883839906296300,10.79129638671875,9.77527904510498,2.6225335597991943,-0.1010967567563057
1744883839923101400,10.808101318359375,9.656235694885254,2.602792739868164,-0.08673982322216034
1744883839939914000,10.8249140625,9.465408325195312,2.606382131576538,-0.062213387340307236
1744883839956731000,10.84173095703125,9.259625434875488,2.633899450302124,-0.04247260093688965
1744883839973537300,10.858537353515626,9.101698875427246,2.6709883213043213,-0.037088751792907715
1744883839990348800,10.875348876953124,9.120841979980469,2.6709883213043213,-0.037088751792907715
1744883840007142000,10.892141845703126,9.250054359436035,2.6051857471466064,-0.06161518394947052
1744883840023970600,10.908970458984374,9.44626522064209,2.5920250415802,-0.10049854964017868
1744883840040778500,10.925778564453125,9.632308006286621,2.5884358882904053,-0.13459627330303192
1744883840057596000,10.942595947265625,9.770493507385254,2.5938198566436768,-0.10648060590028763
1744883840074400000,10.95939990234375,9.82373332977295,2.5746772289276123,-0.06340979784727097
1744883840091217700,10.9762177734375,9.77109146118164,2.579462766647339,-0.05383851006627083
1744883840108012300,10.99301220703125,9.613164901733398,2.6117658615112305,-0.0771685317158699
1744883840124836900,11.0098369140625,9.416953086853027,2.6536402702331543,-0.06699903309345245
1744883840141647600,11.026647705078124,9.297910690307617,2.672184705734253,-0.03290131315588951
1744883840158450700,11.04345068359375,9.259027481079102,2.7008986473083496,-0.047258246690034866
1744883840175260400,11.060260498046874,9.287740707397461,2.6913273334503174,-0.07597211748361588
1744883840192080600,11.07708056640625,9.397212982177734,2.678166627883911,-0.10468599200248718
1744883840208875300,11.093875244140625,9.478569030761719,2.659024238586426,-0.12442677468061447
1744883840225702700,11.11070263671875,9.545567512512207,2.6362924575805664,-0.1818545162677765
1744883840242500900,11.1275009765625,9.583852767944336,2.578864574432373,-0.20578274130821228
1744883840259329800,11.144329833984376,9.603593826293945,2.5740790367126465,-0.19202402234077454
1744883840276116000,11.161115966796874,9.555737495422363,2.5740790367126465,-0.2105683982372284
1744883840292946700,11.17794677734375,9.46899700164795,2.616551637649536,-0.20578274130821228
1744883840309744600,11.19474462890625,9.364311218261719,2.620140790939331,-0.11425728350877762
1744883840326569000,11.21156884765625,9.32602596282959,2.63449764251709,-0.1333998590707779
1744883840343367200,11.2283671875,9.29731273651123,2.6536402702331543,-0.15732808411121368
1744883840360189400,11.245189453125,9.354142189025879,2.6733810901641846,-0.15732808411121368
1744883840377001700,11.262001708984375,9.406784057617188,2.682952404022217,-0.17647066712379456
1744883840393809700,11.2788095703125,9.463613510131836,2.678765058517456,-0.20997019112110138
1744883840410626800,11.295626708984376,9.487542152404785,2.678765058517456,-0.22432711720466614
1744883840427434800,11.312434814453125,9.54496955871582,2.679363250732422,-0.22013968229293823
1744883840444243500,11.329243408203125,9.573683738708496,2.665006160736084,-0.17706887423992157
1744883840461059600,11.3460595703125,9.626325607299805,2.688934564590454,-0.20099709928035736
1744883840477867500,11.362867431640625,9.607182502746582,2.6841487884521484,-0.19621145725250244
1744883840494671000,11.379671142578125,9.545567512512207,2.6596224308013916,-0.1866401731967926
1744883840511493000,11.3964931640625,9.435498237609863,2.668595552444458,-0.18125630915164948
1744883840528301000,11.413301025390625,9.358927726745605,2.6733810901641846,-0.2147558331489563
1744883840545098500,11.430098388671874,9.324830055236816,2.7020950317382812,-0.2189432680606842
1744883840561922800,11.4469228515625,9.34457015991211,2.668595552444458,-0.243469700217247
1744883840578722800,11.463722900390625,9.42054271697998,2.654836654663086,-0.2913261651992798
1744883840595542000,11.4805419921875,9.540184020996094,2.6273193359375,-0.3206382393836975
1744883840612359000,11.49735888671875,9.65503978729248,2.62313175201416,-0.30149564146995544
1744883840629162500,11.51416259765625,9.70229721069336,2.6327030658721924,-0.31106695532798767
1744883840645969700,11.5309697265625,9.707681655883789,2.613560438156128,-0.2919243574142456
1744883840662789400,11.547789306640626,9.635896682739258,2.6177480220794678,-0.2967100143432617
1744883840679599900,11.564599853515626,9.535398483276367,2.651247501373291,-0.3152543902397156
1744883840696411000,11.581410888671876,9.42054271697998,2.678765058517456,-0.27696922421455383
1744883840713222400,11.598222412109376,9.324830055236816,2.6877379417419434,-0.28115665912628174
1744883840730033400,11.615033447265626,9.233902931213379,2.692523717880249,-0.3433700501918793
1744883840746843600,11.63184375,9.176474571228027,2.668595552444458,-0.3475574851036072
1744883840763655400,11.648655517578124,9.138788223266602,2.6488547325134277,-0.36191442608833313
1744883840780465700,11.665465576171876,9.19561767578125,2.668595552444458,-0.3810569941997528
1744883840797278200,11.6822783203125,9.329615592956543,2.6739792823791504,-0.3577269911766052
1744883840814088200,11.699088134765624,9.497113227844238,2.6362924575805664,-0.3008974492549896
1744883840830899200,11.715899169921874,9.65503978729248,2.6087749004364014,-0.33020952343940735
1744883840847710200,11.732710205078124,9.745368003845215,2.5950162410736084,-0.3924229145050049
1744883840864518400,11.749518310546875,9.735198974609375,2.623729944229126,-0.40677985548973083
1744883840881335300,11.766335205078125,9.668798446655273,2.6422743797302246,-0.3206382393836975
1744883840898143500,11.7831435546875,9.568299293518066,2.6943182945251465,-0.30568310618400574
1744883840914954500,11.79995458984375,9.496515274047852,2.727219581604004,-0.3152543902397156
1744883840931765800,11.816765869140625,9.477372169494629,2.7224340438842773,-0.3290131092071533
1744883840948565500,11.8335654296875,9.448060035705566,2.7415764331817627,-0.3242274820804596
1744883840965387500,11.850387451171875,9.438488960266113,2.7224340438842773,-0.3720839321613312
1744883840982198500,11.867198486328125,9.405587196350098,2.6937201023101807,-0.36729827523231506
1744883840998996500,11.88399658203125,9.348159790039062,2.678765058517456,-0.3720839321613312
1744883841015820300,11.9008203125,9.272188186645508,2.6596224308013916,-0.4247260093688965
1744883841032631300,11.91763134765625,9.253045082092285,2.6596224308013916,-0.39122650027275085
1744883841049431000,11.93443115234375,9.329615592956543,2.654836654663086,-0.3577269911766052
1744883841066253800,11.95125390625,9.46301555633545,2.6368906497955322,-0.38703906536102295
1744883841083064300,11.968064208984375,9.611370086669922,2.637488842010498,-0.41096729040145874
1744883841099870200,11.9848701171875,9.7064847946167,2.6285157203674316,-0.4211367964744568
1744883841116686300,12.001686279296875,9.69212818145752,2.633301258087158,-0.41156548261642456
1744883841133497900,12.018497802734375,9.596415519714355,2.6901309490203857,-0.4013960063457489
1744883841150308000,12.03530810546875,9.486345291137695,2.7182464599609375,-0.38644084334373474
1744883841167119600,12.05211962890625,9.409774780273438,2.736790895462036,-0.381655216217041
1744883841183930600,12.0689306640625,9.362516403198242,2.7218358516693115,-0.3481557071208954
1744883841200741600,12.08574169921875,9.329017639160156,2.7074787616729736,-0.3290131092071533
1744883841217552400,12.102552490234375,9.2859468460083,2.7116663455963135,-0.3242274820804596
1744883841234363100,12.119363037109375,9.33858871459961,2.702693223953247,-0.3529413342475891
1744883841251173600,12.136173583984375,9.386445045471191,2.693121910095215,-0.33379876613616943
1744883841267987200,12.1529873046875,9.515657424926758,2.6560330390930176,-0.3487538993358612
1744883841284796400,12.16979638671875,9.711869239807129,2.6428725719451904,-0.3445664644241333
1744883841301607200,12.186607177734375,9.859625816345215,2.6291139125823975,-0.34995031356811523
1744883841318417200,12.203417236328125,9.91705322265625,2.6434707641601562,-0.32602208852767944
1744883841335229700,12.220229736328125,9.769296646118164,2.647658348083496,-0.30628129839897156
1744883841352040200,12.237040283203125,9.454042434692383,2.6835505962371826,-0.22911277413368225
1744883841368833300,12.253833251953125,9.105886459350586,2.7529425621032715,-0.06999006122350693
1744883841385667600,12.27066748046875,8.904889106750488,2.8175487518310547,0.05922235921025276
1744883841402473700,12.2874736328125,8.880363464355469,2.8941190242767334,0.04546362906694412
1744883841419284500,12.304284423828125,9.042476654052734,2.87198543548584,-0.040677983313798904
1744883841436095200,12.32109521484375,9.281160354614258,2.7972097396850586,-0.20877377688884735
1744883841452906500,12.337906494140626,9.485747337341309,2.7326035499572754,-0.4582255482673645
1744883841469700000,12.3547001953125,9.619147300720215,2.681756019592285,-0.6927221417427063
1744883841486528300,12.3715283203125,9.723833084106445,2.668595552444458,-0.7932206988334656
1744883841503339500,12.388339599609376,9.751350402832031,2.740978240966797,-0.8889335989952087
1744883841520150500,12.405150634765626,9.837491989135742,2.6985056400299072,-0.8745766878128052
1744883841536961800,12.4219619140625,9.885348320007324,2.7224340438842773,-0.7651050686836243
1744883841553772000,12.43877197265625,9.924830436706543,2.688336133956909,-0.6556333899497986
1744883841570583600,12.45558349609375,9.872786521911621,2.667997360229492,-0.5024927258491516
1744883841587394300,12.472394287109376,9.7064847946167,2.6763720512390137,-0.43489551544189453
1744883841604205800,12.489205810546874,9.520442962646484,2.6799614429473877,-0.35832518339157104
1744883841621005000,12.506005126953125,9.31047248840332,2.6733810901641846,-0.2763710021972656
1744883841637827600,12.52282763671875,9.148957252502441,2.644068956375122,-0.2667997181415558
1744883841654635300,12.53963525390625,9.106484413146973,2.600399971008301,-0.23808585107326508
1744883841671453000,12.556452880859375,9.178269386291504,2.562713146209717,-0.2626122832298279
1744883841688260400,12.57326025390625,9.302696228027344,2.5489542484283447,-0.21954147517681122
1744883841705068500,12.590068603515626,9.416953086853027,2.5639095306396484,-0.2153540402650833
1744883841721885700,12.6068857421875,9.464810371398926,2.5591237545013428,-0.17228323221206665
1744883841738680800,12.623680908203125,9.407382011413574,2.6015963554382324,-0.13878370821475983
1744883841755491300,12.6404912109375,9.339784622192383,2.667997360229492,-0.15732808411121368
1744883841772328700,12.65732861328125,9.287142753601074,2.743969440460205,-0.1136590763926506
1744883841789126700,12.674126708984375,9.329615592956543,2.8013970851898193,-0.061016976833343506
1744883841805934800,12.690934814453126,9.391828536987305,2.7834508419036865,-0.12323036789894104
1744883841822751500,12.70775146484375,9.495916366577148,2.7840490341186523,-0.22911277413368225
1744883841839560000,12.724559814453125,9.5533447265625,2.7559335231781006,-0.28175488114356995
1744883841856367900,12.741367919921874,9.5533447265625,2.7565317153930664,-0.3248256742954254
1744883841873170400,12.75817041015625,9.505488395690918,2.751147747039795,-0.3242274820804596
1744883841889992400,12.774992431640625,9.456435203552246,2.8522446155548096,-0.4145565330982208
1744883841906801000,12.79180078125,9.346963882446289,2.822932481765747,-0.4336991012096405
1744883841923615500,12.808615478515625,9.1986083984375,2.878565549850464,-0.3326023519039154
1744883841940420900,12.8254208984375,9.056235313415527,2.89172625541687,-0.20817556977272034
1744883841957224200,12.84222412109375,8.937192916870117,2.871387243270874,-0.11724831163883209
1744883841974050800,12.85905078125,8.86660385131836,2.813361167907715,-0.064606212079525
1744883841990858800,12.875858642578125,8.765507698059082,2.846860647201538,-0.16450655460357666
1744883842007670300,12.892670166015625,8.69791030883789,2.8899314403533936,-0.25004997849464417
1744883842024477400,12.9094775390625,8.731410026550293,2.8803603649139404,-0.18783657252788544
1744883842041292800,12.926292724609375,8.94137954711914,2.905484914779663,-0.15972091257572174
1744883842058105000,12.94310498046875,9.303893089294434,2.912663459777832,-0.29431718587875366
1744883842074914000,12.9599140625,9.67657470703125,2.8241288661956787,-0.31046873331069946
1744883842091705600,12.97670556640625,9.93978500366211,2.782254457473755,-0.27756741642951965
1744883842108549400,12.99354931640625,9.997811317443848,2.7349963188171387,-0.2829512655735016
1744883842125347000,13.01034716796875,10.2418794631958,2.6117658615112305,-0.32243284583091736
1744883842142157300,13.0271572265625,10.374680519104004,2.6141586303710938,-0.5282155871391296
1744883842158969900,13.043969970703126,10.422536849975586,2.5950162410736084,-0.5856433510780334
1744883842175779800,13.06077978515625,10.183853149414062,2.6075785160064697,-0.4989035129547119
1744883842192590600,13.077590576171875,9.839884757995605,2.596810817718506,-0.5838487148284912
1744883842209391900,13.094391845703125,9.552745819091797,2.633899450302124,-0.625723123550415
1744883842226212600,13.111212646484375,9.368498802185059,2.507079839706421,-0.44446679949760437
1744883842243024100,13.128024169921876,9.183652877807617,2.500499725341797,-0.2626122832298279
1744883842259835000,13.1448349609375,9.117850303649902,2.4993033409118652,-0.03290131315588951
1744883842276632800,13.1616328125,8.918049812316895,2.5351955890655518,0.17288143932819366
1744883842293456400,13.178456298828126,8.812766075134277,2.5914268493652344,0.30209386348724365
1744883842310252500,13.19525244140625,8.74038314819336,2.710469961166382,0.3128615617752075
1744883842327066000,13.212066162109375,8.97787094116211,2.826521635055542,0.3314059376716614
1744883842343890400,13.228890380859376,8.989834785461426,2.919243574142456,-0.0023928226437419653
1744883842360700700,13.24570068359375,9.169894218444824,2.9688947200775146,-0.17946170270442963
1744883842377512000,13.262511962890626,9.441479682922363,2.970689296722412,-0.26141586899757385
1744883842394319000,13.279319091796875,9.69930648803711,2.9389843940734863,-0.38644084334373474
1744883842411137800,13.2961376953125,9.89970588684082,2.9072794914245605,-0.5156532526016235
1744883842427944700,13.31294482421875,10.009177207946777,2.9036903381347656,-0.5928218364715576
1744883842444755700,13.329755615234374,10.062417030334473,2.812762975692749,-0.5216353535652161
1744883842461567200,13.346567138671874,9.910472869873047,2.778067111968994,-0.4737788736820221
1744883842478378200,13.363378173828124,9.677172660827637,2.7290141582489014,-0.43489551544189453
1744883842495188500,13.3801884765625,9.548559188842773,2.6799614429473877,-0.3966103494167328
1744883842511986700,13.396986572265625,9.473184585571289,2.6362924575805664,-0.3008974492549896
1744883842528798000,13.4137978515625,9.507282257080078,2.569293260574341,-0.2679961323738098
1744883842545631000,13.430630859375,9.541379928588867,2.5220351219177246,-0.2871387302875519
1744883842562432500,13.4474326171875,9.555737495422363,2.4741785526275635,-0.3116651475429535
1744883842579244000,13.464244140625,9.613762855529785,2.417349100112915,-0.3068794906139374
1744883842596055300,13.48105517578125,9.647262573242188,2.4221346378326416,-0.3074777126312256
1744883842612866000,13.497865966796875,9.604191780090332,2.431705951690674,-0.3068794906139374
1744883842629676800,13.5146767578125,9.479166984558105,2.492722988128662,-0.30149564146995544
1744883842646475000,13.53147509765625,9.326624870300293,2.5489542484283447,-0.2386840581893921
1744883842663298800,13.548298828125,9.192625999450684,2.586641311645508,-0.1908276081085205
1744883842680110300,13.5651103515625,9.173483848571777,2.6195425987243652,-0.1663011759519577
1744883842696899300,13.5818994140625,9.249456405639648,2.6632115840911865,-0.1663011759519577
1744883842713731800,13.59873193359375,9.425328254699707,2.688336133956909,-0.20997019112110138
1744883842730542800,13.61554296875,9.601799011230469,2.699103832244873,-0.2392822653055191
1744883842747354000,13.63235400390625,9.721440315246582,2.6949164867401123,-0.25363919138908386
1744883842764164600,13.64916455078125,9.807581901550293,2.68534517288208,-0.2350948303937912
1744883842780975900,13.665975830078125,9.826126098632812,2.6811578273773193,-0.268594354391098
1744883842797787100,13.682787109375,9.836296081542969,2.662015199661255,-0.2638086974620819
1744883842814595300,13.69959521484375,9.745368003845215,2.651845693588257,-0.24466611444950104
1744883842831411700,13.71641162109375,9.602396965026855,2.641077995300293,-0.2153540402650833
1744883842848227600,13.7332275390625,9.459425926208496,2.640479803085327,-0.20518454909324646
1744883842865034200,13.7500341796875,9.321240425109863,2.6111676692962646,-0.19561325013637543
1744883842881842400,13.766842529296875,9.235696792602539,2.6057839393615723,-0.17647066712379456
1744883842898641000,13.783640869140624,9.230313301086426,2.6249263286590576,-0.2189432680606842
1744883842915463000,13.800462890625,9.306883811950684,2.630310297012329,-0.20039889216423035
1744883842932275200,13.817275146484375,9.426525115966797,2.6015963554382324,-0.17228323221206665
1744883842949083400,13.83408349609375,9.483354568481445,2.593221426010132,-0.2632105052471161
1744883842965899800,13.850899658203126,9.497113227844238,2.6177480220794678,-0.3200400173664093
1744883842982708200,13.867708251953125,9.463613510131836,2.674577474594116,-0.2913261651992798
1744883842999519200,13.884519287109375,9.463613510131836,2.6937201023101807,-0.267397940158844
1744883843016330200,13.901330322265625,9.491728782653809,2.7080769538879395,-0.2721835672855377
1744883843033141000,13.91814111328125,9.486943244934082,2.712862730026245,-0.25782662630081177
1744883843049952000,13.934951904296875,9.472586631774902,2.6985056400299072,-0.3008974492549896
1744883843066763000,13.951762939453126,9.405587196350098,2.688934564590454,-0.3577269911766052
1744883843083574500,13.968574462890626,9.367302894592285,2.6697919368743896,-0.36729827523231506
1744883843100385000,13.985385009765626,9.329615592956543,2.688336133956909,-0.3433700501918793
1744883843117196000,14.002196044921876,9.324830055236816,2.688336133956909,-0.30987054109573364
1744883843134004700,14.019004638671875,9.343972206115723,2.6835505962371826,-0.3290131092071533
1744883843150820900,14.03582080078125,9.386445045471191,2.688336133956909,-0.33858439326286316
1744883843167628800,14.05262890625,9.4390869140625,2.679363250732422,-0.36311084032058716
1744883843184443400,14.069443359375,9.467801094055176,2.688934564590454,-0.3439682424068451
1744883843201248500,14.08624853515625,9.42473030090332,2.6841487884521484,-0.32961133122444153
1744883843218062600,14.1030625,9.391230583190918,2.712862730026245,-0.3481557071208954
1744883843234873000,14.119873046875,9.395418167114258,2.7463622093200684,-0.3481557071208954
1744883843251684400,14.136684326171874,9.467203140258789,2.760719060897827,-0.3481557071208954
1744883843268480300,14.153480224609375,9.510273933410645,2.761317253112793,-0.36251261830329895
1744883843285310000,14.17031005859375,9.543174743652344,2.7661030292510986,-0.4055834412574768
1744883843302116900,14.187116943359374,9.55753231048584,2.785843849182129,-0.41515472531318665
1744883843318928100,14.20392822265625,9.57607650756836,2.785843849182129,-0.44386860728263855
1744883843335739400,14.220739501953124,9.561718940734863,2.785843849182129,-0.46779683232307434
1744883843352550700,14.237550537109374,9.524032592773438,2.7661030292510986,-0.44386860728263855
1744883843369356800,14.254356689453125,9.452247619628906,2.746960401535034,-0.44386860728263855
1744883843386176500,14.271176513671875,9.371489524841309,2.7176482677459717,-0.4342973232269287
1744883843402983400,14.2879833984375,9.309874534606934,2.678765058517456,-0.4247260093688965
1744883843419794400,14.30479443359375,9.309874534606934,2.6458635330200195,-0.44386860728263855
1744883843436605200,14.321605224609375,9.415159225463867,2.6225335597991943,-0.4588237404823303
1744883843453419800,14.338419677734375,9.506684303283691,2.6081767082214355,-0.41575294733047485
1744883843470225400,14.355225341796874,9.472586631774902,2.6273193359375,-0.4013960063457489
1744883843487040500,14.37204052734375,9.438488960266113,2.6799614429473877,-0.44386860728263855
1744883843503849000,14.388848876953125,9.467203140258789,2.7559335231781006,-0.3290131092071533
1744883843520660200,14.40566015625,9.591031074523926,2.8139593601226807,-0.3290131092071533
1744883843537471500,14.422471435546875,9.885947227478027,2.8833513259887695,-0.43968117237091064
1744883843554266000,14.43926611328125,10.244272232055664,2.885145902633667,-0.3978067636489868
1744883843571092700,14.4560927734375,10.244272232055664,2.846860647201538,-0.40737804770469666
1744883843587907800,14.472907958984376,10.521839141845703,2.757728099822998,-0.4468596279621124
1744883843604705500,14.48970556640625,10.317253112792969,2.699103832244873,-0.39840495586395264
1744883843621529900,14.50652978515625,10.04566764831543,2.6111676692962646,-0.42711883783340454
1744883843638337300,14.523337158203125,9.521040916442871,2.6177480220794678,-0.372682124376297
1744883843655148300,14.540148193359375,8.995817184448242,2.6386852264404297,-0.31405797600746155
1744883843671959600,14.55695947265625,8.694320678710938,2.6608188152313232,-0.32721850275993347
1744883843688757800,14.5737578125,8.684749603271484,2.736790895462036,-0.2841476798057556
1744883843705576700,14.59057666015625,8.765507698059082,2.8043880462646484,-0.24586252868175507
1744883843722397000,14.60739697265625,8.841479301452637,2.8761727809906006,-0.2027917206287384
1744883843739203300,14.624203369140625,8.926424980163574,2.9958138465881348,-0.07836493849754333
1744883843756014600,14.6410146484375,9.078369140625,3.1447670459747314,-0.04007977992296219
1744883843772819200,14.657819091796876,9.306285858154297,3.2273194789886475,-0.09272187948226929
1744883843789636000,14.674635986328125,9.524630546569824,3.3343982696533203,-0.18364913761615753
1744883843806447000,14.691447021484375,9.610772132873535,3.2967114448547363,-0.2841476798057556
1744883843823259000,14.7082587890625,9.515059471130371,3.277568817138672,-0.32243284583091736
1744883843840068900,14.72506884765625,9.357132911682129,3.3338000774383545,-0.3170489966869354
1744883843856880000,14.741880126953125,9.213563919067383,3.328416347503662,-0.35473597049713135
1744883843873670100,14.758670166015625,9.160323143005371,3.3475589752197266,-0.4211367964744568
1744883843890502400,14.77550244140625,9.189635276794434,3.3003005981445312,-0.45942193269729614
1744883843907313000,14.79231298828125,9.295517921447754,3.1860432624816895,-0.47976094484329224
1744883843924111400,14.809111328125,9.405587196350098,3.1345977783203125,-0.5132604837417603
1744883843940933000,14.82593310546875,9.500701904296875,3.1591241359710693,-0.5473581552505493
1744883843957748500,14.84274853515625,9.596415519714355,3.1591241359710693,-0.5138586759567261
1744883843974541600,14.85954150390625,9.701699256896973,3.178266763687134,-0.4091726839542389
1744883843991370800,14.876370849609375,9.764511108398438,3.1543383598327637,-0.33798620104789734
1744883844008179200,14.89317919921875,9.783653259277344,3.1214370727539062,-0.34277185797691345
1744883844024979000,14.90997900390625,9.764511108398438,3.111865758895874,-0.357128769159317
1744883844041798700,14.926798583984375,9.693324089050293,3.087339401245117,-0.31405797600746155
1744883844058603300,14.943603271484376,9.607781410217285,3.0580272674560547,-0.29012975096702576
1744883844075423200,14.96042333984375,9.503094673156738,3.0239295959472656,-0.28534409403800964
1744883844092234500,14.977234375,9.427123069763184,2.9898319244384766,-0.2709871530532837
1744883844109045200,14.994045166015624,9.389435768127441,2.937189817428589,-0.3044866919517517
1744883844125853000,15.01085302734375,9.41336441040039,2.908475875854492,-0.3236292600631714
1744883844142670300,15.02767041015625,9.475577354431152,2.894717216491699,-0.3475574851036072
1744883844159478500,15.044478515625,9.604191780090332,2.895315408706665,-0.3577269911766052
1744883844176286000,15.061285888671875,9.737591743469238,2.9204399585723877,-0.38644084334373474
1744883844193103400,15.078103271484375,9.856635093688965,2.954537868499756,-0.4342973232269287
1744883844209911000,15.0949111328125,9.89432144165039,2.9790642261505127,-0.4295116662979126
1744883844226722300,15.111722412109375,9.994820594787598,2.9796624183654785,-0.44446679949760437
1744883844243533000,15.128532958984374,10.080363273620605,2.985046148300171,-0.46360939741134644
1744883844260344600,15.145344482421875,10.190433502197266,2.9659037590026855,-0.4163511395454407
1744883844277155300,15.1621552734375,10.210174560546875,2.937189817428589,-0.3924229145050049
1744883844293966600,15.178966552734375,10.15753173828125,2.9180471897125244,-0.4259224236011505
1744883844310774800,15.19577490234375,10.015159606933594,2.8929226398468018,-0.35892340540885925
1744883844327588600,15.212588623046875,9.809974670410156,2.8725836277008057,-0.3487538993358612
1744883844344396800,15.229396728515624,9.65683364868164,2.8863422870635986,-0.3577269911766052
1744883844361212700,15.246212646484375,9.57607650756836,2.861815929412842,-0.2955136001110077
1744883844378022000,15.26302197265625,9.595218658447266,2.833101987838745,-0.3194418251514435
1744883844394832400,15.279832275390625,9.738788604736328,2.8384859561920166,-0.28654050827026367
1744883844411655200,15.2966552734375,9.891928672790527,2.815753936767578,-0.3206382393836975
1744883844428451000,15.313451171875,9.972686767578125,2.830709218978882,-0.35892340540885925
1744883844445265200,15.33026513671875,10.025328636169434,2.825923442840576,-0.35413774847984314
1744883844462076400,15.347076416015625,10.006186485290527,2.830709218978882,-0.3684946894645691
1744883844478887400,15.363887451171875,9.981659889221191,2.888136863708496,-0.3535395562648773
1744883844495695400,15.3806953125,9.985847473144531,2.926422119140625,-0.33439695835113525
1744883844512512300,15.39751220703125,9.966704368591309,2.94975209236145,-0.32961133122444153
1744883844529307100,15.41430712890625,9.981060981750488,2.9455647468566895,-0.3248256742954254
1744883844546131200,15.431131103515625,10.009775161743164,2.9312076568603516,-0.38225340843200684
1744883844562943000,15.44794287109375,10.019346237182617,2.9168508052825928,-0.38703906536102295
1744883844579753200,15.464753173828125,9.991230964660645,2.8833513259887695,-0.36311084032058716
1744883844596564500,15.481564453125,9.910472869873047,2.8492536544799805,-0.35832518339157104
1744883844613375500,15.49837548828125,9.838688850402832,2.8588249683380127,-0.3774677813053131
1744883844630186500,15.5151865234375,9.738788604736328,2.8342983722686768,-0.3439682424068451
1744883844646997200,15.531997314453125,9.69093132019043,2.80977201461792,-0.3248256742954254
1744883844663808500,15.54880859375,9.652647018432617,2.8289146423339844,-0.3577269911766052
1744883844680625700,15.565625732421875,9.643074989318848,2.8002007007598877,-0.3678964674472809
1744883844697431000,15.58243115234375,9.65803050994873,2.8049862384796143,-0.33918261528015137
1744883844714242300,15.5992421875,9.652647018432617,2.8289146423339844,-0.3481557071208954
1744883844731038000,15.616037841796874,9.738788604736328,2.8247270584106445,-0.38225340843200684
1744883844747863300,15.63286328125,9.900901794433594,2.820539712905884,-0.349352091550827
1744883844764672000,15.649672119140625,10.058828353881836,2.8073792457580566,-0.3445664644241333
1744883844781478000,15.666477783203124,10.159326553344727,2.7984061241149902,-0.3451646566390991
1744883844798296800,15.683296875,10.207182884216309,2.7553353309631348,-0.34576287865638733
1744883844815107600,15.700107666015626,10.187442779541016,2.7984061241149902,-0.3643072545528412
1744883844831923000,15.7169228515625,10.101899147033691,2.8217360973358154,-0.34995031356811523
1744883844848716000,15.733716064453125,9.996614456176758,2.8450660705566406,-0.3206382393836975
1744883844865540900,15.750540771484374,9.90568733215332,2.8677978515625,-0.2679961323738098
1744883844882351400,15.767351318359376,9.839286804199219,2.8486554622650146,-0.267397940158844
1744883844899162600,15.78416259765625,9.81535816192627,2.843869686126709,-0.2721835672855377
1744883844915973600,15.8009736328125,9.81535816192627,2.8384859561920166,-0.24825534224510193
1744883844932784400,15.817784423828124,9.810572624206543,2.8342983722686768,-0.267397940158844
1744883844949595400,15.834595458984374,9.824930191040039,2.82951283454895,-0.30568310618400574
1744883844966389200,15.85138916015625,9.839286804199219,2.8103702068328857,-0.33439695835113525
1744883844983217200,15.868217041015624,9.872786521911621,2.8013970851898193,-0.3206382393836975
1744883845000028700,15.885028564453124,9.891928672790527,2.8013970851898193,-0.2919243574142456
1744883845016839400,15.90183935546875,9.891928672790527,2.7870402336120605,-0.27756741642951965
1744883845033650700,15.918650634765624,9.915857315063477,2.806182861328125,-0.2967100143432617
1744883845050461200,15.935461181640624,9.958928108215332,2.8109683990478516,-0.2919243574142456
1744883845067272400,15.9522724609375,10.02592658996582,2.825923442840576,-0.2584248483181
1744883845084083500,15.96908349609375,10.115657806396484,2.8737800121307373,-0.2727817893028259
1744883845100895000,15.98589501953125,10.186843872070312,2.898306369781494,-0.30149564146995544
1744883845117705200,16.002705322265626,10.239486694335938,2.8797619342803955,-0.3116651475429535
1744883845134514400,16.019514404296874,10.192228317260742,2.8558337688446045,-0.3164508044719696
1744883845151314400,16.036314453125,10.04447078704834,2.816352367401123,-0.3206382393836975
1744883845168141800,16.053141845703124,9.868000984191895,2.8013970851898193,-0.3158525824546814
1744883845184949200,16.06994921875,9.720243453979492,2.8002007007598877,-0.28654050827026367
1744883845201760800,16.0867607421875,9.662816047668457,2.785245656967163,-0.27696922421455383
1744883845218565000,16.103565185546874,9.715457916259766,2.761915445327759,-0.2913261651992798
1744883845235382500,16.120382568359375,9.81655502319336,2.733799934387207,-0.2632105052471161
1744883845252193300,16.137193359375,9.902098655700684,2.743969440460205,-0.2584248483181
1744883845269004800,16.1540048828125,9.92124080657959,2.767897605895996,-0.2632105052471161
1744883845285815600,16.170815673828123,9.892526626586914,2.80558443069458,-0.2153540402650833
1744883845302623700,16.187623779296874,9.791430473327637,2.857628345489502,-0.20039889216423035
1744883845319440100,16.204440185546876,9.714262008666992,2.9288148880004883,-0.21415762603282928
1744883845336248600,16.22124853515625,9.718449592590332,2.991028308868408,-0.23808585107326508
1744883845353057300,16.238057373046875,9.847661972045898,3.0107691287994385,-0.23330020904541016
1744883845369873000,16.254872802734376,9.985248565673828,3.0167510509490967,-0.30568310618400574
1744883845386681600,16.271681640625,10.119247436523438,2.998805046081543,-0.33918261528015137
1744883845403494100,16.288494140625,10.152746200561523,2.984447956085205,-0.3206382393836975
1744883845420301800,16.3053017578125,10.076175689697266,2.988635540008545,-0.31046873331069946
1744883845437115000,16.322114990234375,9.962516784667969,2.9449665546417236,-0.2961117923259735
1744883845453922000,16.338922119140626,9.896116256713867,2.8965117931365967,-0.28654050827026367
1744883845470736600,16.355736572265624,9.814162254333496,2.939582586288452,-0.2961117923259735
1744883845487551000,16.372551025390624,9.737591743469238,2.9485557079315186,-0.3529413342475891
1744883845504359200,16.389359130859376,9.670592308044434,2.9485557079315186,-0.3720839321613312
1744883845521169000,16.4061689453125,9.661619186401367,2.957528829574585,-0.2907279431819916
1744883845537981000,16.42298095703125,9.68076229095459,2.9288148880004883,-0.26201409101486206
1744883845554791400,16.43979150390625,9.751948356628418,2.929413080215454,-0.3242274820804596
1744883845571602000,16.456601806640624,9.866804122924805,2.954537868499756,-0.3248256742954254
1744883845588414500,16.47341455078125,9.962516784667969,2.9066812992095947,-0.3152543902397156
1744883845605225000,16.490224853515624,10.000802040100098,2.902493953704834,-0.30628129839897156
1744883845622035500,16.507035400390624,9.938589096069336,2.9114668369293213,-0.2913261651992798
1744883845638835500,16.52383544921875,9.824331283569336,2.9012975692749023,-0.2626122832298279
1744883845655657700,16.54065771484375,9.671191215515137,2.9240293502807617,-0.24287149310112
1744883845672468700,16.55746875,9.542576789855957,2.9276185035705566,-0.17587246000766754
1744883845689279700,16.57427978515625,9.44746208190918,2.9036903381347656,-0.19920247793197632
1744883845706094000,16.591093994140625,9.43310546875,2.8701908588409424,-0.2470589429140091
1744883845722899000,16.60789892578125,9.462417602539062,2.8175487518310547,-0.23330020904541016
1744883845739712800,16.624712646484376,9.400801658630371,2.779263496398926,-0.2476571500301361
1744883845756524000,16.64152392578125,9.257830619812012,2.7589244842529297,-0.22851456701755524
1744883845773335300,16.658335205078124,9.114261627197266,2.758326292037964,-0.2183450609445572
1744883845790145500,16.6751455078125,9.047262191772461,2.7864420413970947,-0.20338992774486542
1744883845806953700,16.69195361328125,9.099306106567383,2.854039192199707,-0.20817556977272034
1744883845823771100,16.708771240234373,9.327820777893066,2.9030921459198,-0.2757728099822998
1744883845840579000,16.7255791015625,9.623334884643555,2.9479575157165527,-0.30508488416671753
1744883845857376300,16.742376220703125,9.818947792053223,2.977867841720581,-0.28115665912628174
1744883845874196700,16.75919677734375,9.937990188598633,3.0113673210144043,-0.2147558331489563
1744883845891015400,16.776015380859373,9.994820594787598,3.050250768661499,-0.2386840581893921
1744883845907823400,16.7928232421875,10.02293586730957,3.098107099533081,-0.28115665912628174
1744883845924631000,16.809631103515624,10.147960662841797,3.008376359939575,-0.3200400173664093
1744883845941447400,16.826447509765625,10.310672760009766,2.895315408706665,-0.4408775866031647
1744883845958265000,16.84326513671875,10.435099601745605,2.772084951400757,-0.5467599630355835
1744883845975054300,16.860054443359374,10.52782154083252,2.595614433288574,-0.5617151260375977
1744883845991877600,16.876877685546877,10.375877380371094,2.504088878631592,-0.5808576941490173
1744883846008676900,16.8936767578125,10.118648529052734,2.431107759475708,-0.5760720372200012
1744883846025499000,16.910498779296876,9.784850120544434,2.3952155113220215,-0.5324030518531799
1744883846042310100,16.92731005859375,9.498908042907715,2.369492530822754,-0.4408775866031647
1744883846059110400,16.9441103515625,9.418149948120117,2.344966173171997,-0.37866419553756714
1744883846075919600,16.960919677734374,9.43310546875,2.325225353240967,-0.3355933725833893
1744883846092744200,16.977744140625,9.600004196166992,2.3024935722351074,-0.37447673082351685
1744883846109542700,16.994542724609374,9.681360244750977,2.317448616027832,-0.34576287865638733
1744883846126365700,17.01136572265625,9.648459434509277,2.316850423812866,-0.2883351147174835
1744883846143175200,17.028175048828125,9.556933403015137,2.397010087966919,-0.21655045449733734
1744883846159989500,17.044989501953125,9.418149948120117,2.4634108543395996,-0.2111666053533554
1744883846176799200,17.06179931640625,9.336195945739746,2.558525562286377,-0.21954147517681122
1744883846193609200,17.078609130859373,9.282357215881348,2.65423846244812,-0.22851456701755524
1744883846210420700,17.095420654296873,9.363115310668945,2.692523717880249,-0.22432711720466614
1744883846227232300,17.112232177734374,9.581459999084473,2.809173822402954,-0.28115665912628174
1744883846244039700,17.129039794921876,9.886545181274414,2.815753936767578,-0.3445664644241333
1744883846260856600,17.145856689453126,10.168299674987793,2.7840490341186523,-0.4169493317604065
1744883846277664800,17.162664794921874,10.345368385314941,2.7044878005981445,-0.5132604837417603
1744883846294472700,17.17947265625,10.417153358459473,2.6285157203674316,-0.5760720372200012
1744883846311277000,17.196277099609375,10.312467575073242,2.6087749004364014,-0.5611169338226318
1744883846328097800,17.213097900390625,10.069596290588379,2.5645077228546143,-0.537188708782196
1744883846344908800,17.22990869140625,9.77408218383789,2.5148565769195557,-0.5461617708206177
1744883846361719600,17.246719482421874,9.531210899353027,2.4610180854797363,-0.5359922647476196
1744883846378512400,17.263512451171874,9.350552558898926,2.4023938179016113,-0.5072783827781677
1744883846395341600,17.280341552734374,9.283554077148438,2.3922245502471924,-0.49710890650749207
1744883846412166100,17.297166259765625,9.302696228027344,2.406581401824951,-0.4450650215148926
1744883846428953000,17.313953125,9.41755199432373,2.421536445617676,-0.40677985548973083
1744883846445775000,17.330775146484374,9.56052303314209,2.4364917278289795,-0.37866419553756714
1744883846462585600,17.347585693359374,9.68913745880127,2.4705893993377686,-0.388235479593277
1744883846479396900,17.36439697265625,9.731609344482422,2.5094728469848633,-0.4408775866031647
1744883846496208000,17.381207763671874,9.683155059814453,2.5806591510772705,-0.4498506486415863
1744883846513008400,17.39800830078125,9.592227935791016,2.6470601558685303,-0.3966103494167328
1744883846529816300,17.41481640625,9.525228500366211,2.6847469806671143,-0.3774677813053131
1744883846546629400,17.43162939453125,9.558130264282227,2.7188446521759033,-0.41575294733047485
1744883846563452000,17.448451904296874,9.629316329956055,2.748156785964966,-0.44446679949760437
1744883846580262100,17.46526220703125,9.715457916259766,2.7290141582489014,-0.41575294733047485
1744883846597074200,17.48207421875,9.744172096252441,2.6907291412353516,-0.41156548261642456
1744883846613874400,17.49887451171875,9.681958198547363,2.695514678955078,-0.4827519655227661
1744883846630691000,17.515691162109373,9.53360366821289,2.709273338317871,-0.4582255482673645
1744883846647526700,17.532526611328127,9.409774780273438,2.7224340438842773,-0.3768695592880249
1744883846664315100,17.549315185546874,9.30449104309082,2.740978240966797,-0.4145565330982208
1744883846681128200,17.566128173828126,9.280562400817871,2.7696921825408936,-0.44805604219436646
1744883846697942800,17.58294287109375,9.270991325378418,2.727219581604004,-0.4815555512905121
1744883846714748000,17.599747802734374,9.356534957885742,2.7086751461029053,-0.5437689423561096
1744883846731564800,17.616564697265623,9.418149948120117,2.7523441314697266,-0.6011967062950134
1744883846748360000,17.63335986328125,9.461220741271973,2.7762725353240967,-0.5868397355079651
1744883846765184300,17.650184326171875,9.379864692687988,2.8187451362609863,-0.5581258535385132
1744883846781995000,17.6669951171875,9.245866775512695,2.8277182579040527,-0.5479564070701599
1744883846798793500,17.68379345703125,9.112466812133789,2.826521635055542,-0.542572557926178
1744883846815617000,17.700616943359375,9.040083885192871,2.850450038909912,-0.5760720372200012
1744883846832428000,17.717427978515627,9.068798065185547,2.8791637420654297,-0.5042873620986938
1744883846849239300,17.7342392578125,9.135796546936035,2.888735055923462,-0.42771705985069275
1744883846866049800,17.7510498046875,9.217751502990723,2.864806890487671,-0.4139583110809326
1744883846882861300,17.767861328125,9.317651748657227,2.846860647201538,-0.4378865361213684
1744883846899672000,17.784672119140627,9.404391288757324,2.822932481765747,-0.39541393518447876
1744883846916483000,17.801483154296875,9.466604232788086,2.813361167907715,-0.36251261830329895
1744883846933293800,17.8182939453125,9.456435203552246,2.837887763977051,-0.41934216022491455
1744883846950104800,17.835104736328127,9.527621269226074,2.861815929412842,-0.42412781715393066
1744883846966916400,17.851916259765623,9.551549911499023,2.8624141216278076,-0.46719861030578613
1744883846983727600,17.8687275390625,9.527621269226074,2.87198543548584,-0.46719861030578613
1744883847000537900,17.885537841796875,9.484550476074219,2.871387243270874,-0.4289134442806244
1744883847017349400,17.902349365234375,9.394221305847168,2.861217737197876,-0.45284169912338257
1744883847034160400,17.919160400390624,9.269794464111328,2.8558337688446045,-0.4331009089946747
1744883847050971400,17.935971435546875,9.169894218444824,2.8456642627716064,-0.42352959513664246
1744883847067782000,17.952781982421875,9.174081802368164,2.8695926666259766,-0.4570291340351105
1744883847084590000,17.969590087890627,9.28893756866455,2.851048231124878,-0.4426721930503845
1744883847101407500,17.986407470703124,9.46181869506836,2.799602508544922,-0.4336991012096405
1744883847118215400,18.00321533203125,9.600603103637695,2.733201742172241,-0.43968117237091064
1744883847135026200,18.020026123046875,9.701101303100586,2.685943365097046,-0.43489551544189453
1744883847151837000,18.0368369140625,9.65384292602539,2.647658348083496,-0.43968117237091064
1744883847168637000,18.053636962890625,9.525228500366211,2.6470601558685303,-0.4301098585128784
1744883847185449200,18.07044921875,9.31047248840332,2.630908489227295,-0.41515472531318665
1744883847202270000,18.08727001953125,9.186644554138184,2.630310297012329,-0.39122650027275085
1744883847219068200,18.104068115234377,9.110074043273926,2.6392834186553955,-0.3810569941997528
1744883847235881000,18.120880859375,9.110074043273926,2.6297121047973633,-0.33798620104789734
1744883847252703500,18.137703369140624,9.17707347869873,2.644667148590088,-0.33379876613616943
1744883847269513700,18.154513671875,9.33440113067627,2.669193744659424,-0.36251261830329895
1744883847286312200,18.171312255859377,9.505488395690918,2.6847469806671143,-0.4013960063457489
1744883847303136300,18.18813623046875,9.705886840820312,2.700300455093384,-0.43968117237091064
1744883847319947300,18.204947265625,9.839286804199219,2.7014968395233154,-0.45942193269729614
1744883847336757800,18.2217578125,9.882955551147461,2.667997360229492,-0.4737788736820221
1744883847353567500,18.2385673828125,9.873384475708008,2.6632115840911865,-0.46899324655532837
1744883847370382000,18.255382080078125,9.792028427124023,2.6488547325134277,-0.48813581466674805
1744883847387191300,18.27219140625,9.7064847946167,2.6386852264404297,-0.5024927258491516
1744883847404002000,18.289001953125,9.65384292602539,2.599801778793335,-0.48813581466674805
1744883847420813000,18.30581298828125,9.635298728942871,2.585444927215576,-0.46420758962631226
1744883847437624000,18.3226240234375,9.611370086669922,2.5806591510772705,-0.4546363055706024
1744883847454432300,18.339432373046876,9.588040351867676,2.5609183311462402,-0.44027936458587646
1744883847471260700,18.3562607421875,9.53061294555664,2.5561327934265137,-0.4211367964744568
1744883847488059100,18.37305908203125,9.468399047851562,2.56510591506958,-0.4253242313861847
1744883847504868400,18.389868408203125,9.449256896972656,2.589034080505371,-0.43489551544189453
1744883847521679600,18.4066796875,9.454042434692383,2.5986053943634033,-0.41096729040145874
1744883847538477000,18.42347705078125,9.515657424926758,2.6183462142944336,-0.4253242313861847
1744883847555301400,18.44030126953125,9.587442398071289,2.6285157203674316,-0.4492524564266205
1744883847572108500,18.457108642578124,9.625128746032715,2.638087034225464,-0.43968117237091064
1744883847588915200,18.473915283203127,9.610772132873535,2.6422743797302246,-0.43968117237091064
1744883847605734100,18.490734130859376,9.5533447265625,2.661417007446289,-0.43968117237091064
1744883847622545200,18.507545166015625,9.500701904296875,2.723032236099243,-0.44386860728263855
1744883847639356400,18.5243564453125,9.452845573425293,2.7320053577423096,-0.39122650027275085
1744883847656167700,18.541167724609377,9.386445045471191,2.6979074478149414,-0.3194418251514435
1744883847672977700,18.557977783203125,9.223732948303223,2.6835505962371826,-0.46719861030578613
1744883847689789200,18.5747890625,9.548559188842773,2.713460922241211,-0.3535395562648773
1744883847706608400,18.5916083984375,9.53779125213623,2.8043880462646484,-0.4342973232269287
1744883847723410200,18.60841015625,9.614361763000488,2.8384859561920166,-0.39601215720176697
1744883847740222000,18.625221923828125,9.647262573242188,2.8486554622650146,-0.4582255482673645
1744883847757033500,18.642033447265625,9.533005714416504,2.837887763977051,-0.36729827523231506
1744883847773844000,18.658843994140625,9.524032592773438,2.8187451362609863,-0.3290131092071533
1744883847790655500,18.675655517578125,9.467801094055176,2.688934564590454,-0.35832518339157104
1744883847807465000,18.69246484375,9.618548393249512,2.8767709732055664,-0.4630111753940582
1744883847824285000,18.709284912109375,9.606584548950195,2.912065267562866,-0.7872386574745178
1744883847841091600,18.726091552734374,9.694520950317383,2.692523717880249,-0.8219345808029175
1744883847857899800,18.742899658203125,9.56471061706543,2.815753936767578,-0.7447660565376282
1744883847874698800,18.75969873046875,9.445069313049316,2.957528829574585,-0.519242525100708
1744883847891524400,18.7765244140625,9.452247619628906,2.761317253112793,-0.47258245944976807
1744883847908332000,18.79333203125,9.387042999267578,2.6596224308013916,-0.3008974492549896
1744883847925143300,18.810143310546874,9.312267303466797,2.610569477081299,-0.07118647545576096
1744883847941954000,18.8269541015625,9.10827922821045,2.5746772289276123,0.10588239878416061
1744883847958752000,18.843751953125,8.992825508117676,2.679363250732422,0.12083754688501358
1744883847975563000,18.86056298828125,8.830113410949707,2.6596224308013916,0.0687936544418335
1744883847992387600,18.8773876953125,8.800801277160645,2.7553353309631348,0.02153540402650833
1744883848009195500,18.894195556640625,8.771489143371582,2.7696921825408936,-0.031106693670153618
1744883848026011600,18.91101171875,8.846863746643066,2.8181469440460205,-0.11246266216039658
1744883848042816800,18.927816650390625,8.922835350036621,2.8289146423339844,-0.18424734473228455
1744883848059635000,18.944635009765626,8.989834785461426,2.8624141216278076,-0.1698904037475586
1744883848076428800,18.9614287109375,9.027522087097168,2.867199659347534,-0.15074782073497772
1744883848093252400,18.97825244140625,9.089137077331543,2.9114668369293213,-0.24167509377002716
1744883848110068500,18.995068359375,9.169894218444824,2.8833513259887695,-0.34217363595962524
1744883848126872000,19.0118720703125,9.293723106384277,2.888735055923462,-0.37088751792907715
1744883848143684400,19.028684326171874,9.413962364196777,2.8420751094818115,-0.36191442608833313
1744883848160499000,19.0454990234375,9.5862455368042,2.775674343109131,-0.3535395562648773
1744883848177309700,19.062309814453126,9.725627899169922,2.68534517288208,-0.32542386651039124
1744883848194119700,19.07911962890625,9.878767967224121,2.633899450302124,-0.3403790295124054
1744883848210930200,19.09593017578125,9.959526062011719,2.6632115840911865,-0.41216370463371277
1744883848227741400,19.112741455078126,9.850054740905762,2.624328136444092,-0.40737804770469666
1744883848244550000,19.1295498046875,9.777671813964844,2.696112871170044,-0.4259224236011505
1744883848261366000,19.146365966796875,9.724431037902832,2.6727828979492188,-0.5641079545021057
1744883848278174000,19.163174072265626,9.653244972229004,2.6009981632232666,-0.664606511592865
1744883848294985200,19.179985107421874,9.695717811584473,2.6057839393615723,-0.7028916478157043
1744883848311796000,19.1967958984375,9.65803050994873,2.59621262550354,-0.6454638838768005
1744883848328594400,19.213594482421875,9.610174179077148,2.6147570610046387,-0.6119644045829773
1744883848345402400,19.23040234375,9.600603103637695,2.633899450302124,-0.597607433795929
1744883848362232300,19.247232421875,9.57188892364502,2.624328136444092,-0.6598208546638489
1744883848379040300,19.264040283203126,9.518648147583008,2.620140790939331,-0.7980063557624817
1744883848395851500,19.2808515625,9.518050193786621,2.667997360229492,-0.8213363885879517
1744883848412662000,19.297662109375,9.541379928588867,2.691925525665283,-0.8739784955978394
1744883848429473500,19.3144736328125,9.55633544921875,2.606382131576538,-0.898504912853241
1744883848446284500,19.331284423828127,9.561718940734863,2.5920250415802,-0.8889335989952087
1744883848463095600,19.348095458984375,9.599406242370605,2.6350958347320557,-0.9224331378936768
1744883848479906000,19.364906005859375,9.517452239990234,2.668595552444458,-0.9361918568611145
1744883848496717000,19.381717041015627,9.374481201171875,2.6913273334503174,-0.8973084688186646
1744883848513515300,19.398515380859376,9.378668785095215,2.8103702068328857,-0.7920243144035339
1744883848530339600,19.415339599609375,9.412766456604004,2.8426733016967773,-0.5629115104675293
1744883848547150300,19.432150390625,9.575477600097656,2.9240293502807617,-0.30508488416671753
1744883848563948000,19.448947998046876,9.865608215332031,3.0831520557403564,-0.23808585107326508
1744883848580772400,19.4657724609375,9.981060981750488,2.898306369781494,-0.43489551544189453
1744883848597583600,19.48258349609375,10.195816993713379,2.9419753551483154,-0.33020952343940735
1744883848614381800,19.4993818359375,10.36929702758789,2.936591625213623,-0.07776673883199692
1744883848631207700,19.516207763671876,10.485946655273438,2.812164783477783,0.06939185410737991
1744883848648014800,19.533014892578127,10.576874732971191,2.9066812992095947,0.3517449200153351
1744883848664827400,19.549827392578123,10.491331100463867,2.7972097396850586,0.23210379481315613
1744883848681638100,19.56663818359375,10.405189514160156,2.764308452606201,0.05024927482008934
1744883848698450200,19.5834501953125,10.115059852600098,2.6428725719451904,0.09391828626394272
1744883848715266000,19.60026611328125,9.89551830291748,2.702693223953247,0.2805584669113159
1744883848732074500,19.617074462890624,9.713065147399902,2.6841487884521484,0.018544375896453857
1744883848748868900,19.633868896484376,9.501898765563965,2.5178475379943848,-0.5306084156036377
1744883848765693200,19.650693115234375,9.337990760803223,2.3150558471679688,-1.2095718383789062
1744883848782504400,19.66750439453125,9.209376335144043,2.176870346069336,-1.4386845827102661
1744883848799315500,19.6843154296875,9.06700325012207,2.155933141708374,-1.2382856607437134
1744883848816126000,19.7011259765625,8.835497856140137,2.052443504333496,-0.9798609018325806
1744883848832937000,19.71793701171875,8.483154296875,2.097309112548828,-0.6873382925987244
1744883848849735200,19.734735107421876,8.142775535583496,2.276770830154419,-0.633499801158905
1744883848866559500,19.7515595703125,7.857431411743164,2.520240545272827,-0.8799605369567871
1744883848883370200,19.768370361328124,7.697112083435059,2.706880569458008,-1.0456634759902954
1744883848900181200,19.78518115234375,7.597211837768555,2.6871397495269775,-1.0791629552841187
1744883848916992300,19.8019921875,7.7700934410095215,2.7248268127441406,-0.8165507316589355
1744883848933803500,19.818803466796876,8.191229820251465,2.7260231971740723,-0.5982056856155396
1744883848950605300,19.835605224609374,8.635697364807129,2.7427730560302734,-0.537188708782196
1744883848967425300,19.85242529296875,9.117850303649902,2.5322046279907227,-0.8733802437782288
1744883848984227300,19.869227294921874,9.920642852783203,2.213959217071533,-1.3836497068405151
1744883849001045000,19.886044921875,10.88554859161377,1.6121642589569092,-0.4713860750198364
1744883849017858000,19.902858154296876,10.978270530700684,2.3497519493103027,-0.6023930907249451
1744883849034666000,19.919666015625,10.425528526306152,3.1040892601013184,-0.9750752449035645
1744883849051483600,19.936483642578125,9.8267240524292,3.149552822113037,-1.1928220987319946
1744883849068291800,19.953291748046876,9.063413619995117,3.287140130996704,-0.8895317912101746
1744883849085097700,19.97009765625,8.542975425720215,3.459423303604126,-0.5479564070701599
1744883849101918000,19.98691796875,8.34317398071289,3.751347780227661,-0.8422735929489136
1744883849118711600,20.003711669921874,8.62732219696045,3.9020955562591553,-1.0145567655563354
1744883849135532000,20.020531982421875,9.236893653869629,3.651447296142578,-0.859621524810791
1744883849152349200,20.03734912109375,9.861420631408691,3.2482566833496094,-0.8153542876243591
1744883849169157400,20.054157470703124,10.13599681854248,2.93001127243042,-0.865005373954773
1744883849185965600,20.070965576171876,10.262218475341797,2.6775684356689453,-1.0193424224853516
1744883849202782200,20.0877822265625,10.15872859954834,2.51425838470459,-0.9672985672950745
1744883849219577000,20.1045771484375,9.906285285949707,2.5262224674224854,-0.7752745151519775
1744883849236401200,20.121401123046876,9.562317848205566,2.633899450302124,-0.6167500615119934
1744883849253212200,20.138212158203125,9.220742225646973,2.847458839416504,-0.7052844762802124
1744883849270023700,20.155023681640625,9.052047729492188,2.9288148880004883,-0.9002995491027832
1744883849286834000,20.171833984375,8.985647201538086,2.8899314403533936,-0.9050851464271545
1744883849303645400,20.1886455078125,9.044271469116211,2.7846474647521973,-0.776470959186554
1744883849320456400,20.20545654296875,9.097511291503906,2.774477958679199,-0.6526423692703247
1744883849337267700,20.222267822265625,9.097511291503906,2.8175487518310547,-0.633499801158905
1744883849354078000,20.239077880859377,9.226125717163086,2.8660032749176025,-0.633499801158905
1744883849370889500,20.255889404296877,9.382257461547852,2.967698335647583,-0.6478567123413086
1744883849387700500,20.272700439453125,9.501300811767578,3.025724172592163,-0.6909275650978088
1744883849404508400,20.28950830078125,9.620343208312988,3.0071799755096436,-0.7202396392822266
1744883849421325300,20.3063251953125,9.602396965026855,2.968296527862549,-0.605384111404419
1744883849438133500,20.323133544921873,9.507881164550781,2.905484914779663,-0.4911268353462219
1744883849454939600,20.339939697265624,9.503693580627441,2.8767709732055664,-0.4911268353462219
1744883849471760600,20.3567607421875,9.460023880004883,2.919243574142456,-0.4713860750198364
1744883849488565500,20.3735654296875,9.407979965209961,2.8899314403533936,-0.4384847581386566
1744883849505377500,20.39037744140625,9.375079154968262,2.894717216491699,-0.41874396800994873
1744883849522188500,20.4071884765625,9.488738059997559,2.919243574142456,-0.4863412082195282
1744883849538999600,20.42399951171875,9.5324068069458,2.8905298709869385,-0.4624129831790924
1744883849555810300,20.440810302734373,9.474979400634766,2.8905298709869385,-0.4289134442806244
1744883849572624000,20.457623779296874,9.265008926391602,2.8414769172668457,-0.5048855543136597
1744883849589430000,20.474429931640625,9.221938133239746,2.8797619342803955,-0.4618147611618042
1744883849606243800,20.491243896484374,9.136395454406738,2.874378204345703,-0.42831525206565857
1744883849623054600,20.5080546875,9.189037322998047,2.836092948913574,-0.4570291340351105
1744883849639865300,20.524865234375,9.255437850952148,2.874378204345703,-0.39481574296951294
1744883849656676600,20.541676513671874,9.280562400817871,2.803191661834717,-0.3762713670730591
1744883849673488000,20.55848779296875,9.351150512695312,2.799602508544922,-0.5389832854270935
1744883849690297600,20.575297607421874,9.474381446838379,2.8390841484069824,-0.6346961855888367
1744883849707109600,20.592109619140626,9.522237777709961,2.853440999984741,-0.6299105882644653
1744883849723920600,20.608920654296874,9.565906524658203,2.8528428077697754,-0.4384847581386566
1744883849740731400,20.6257314453125,9.643074989318848,2.8145575523376465,-0.3481557071208954
1744883849757542100,20.642542236328126,9.881759643554688,2.730808734893799,-0.5736792087554932
1744883849774355500,20.65935546875,9.775876998901367,2.7876384258270264,-0.6161518096923828
1744883849791150300,20.676150390625,9.359525680541992,2.8905298709869385,-0.6005984544754028
1744883849807976200,20.69297607421875,9.153144836425781,3.046661376953125,-0.5132604837417603
1744883849824786400,20.709786376953126,8.888737678527832,3.245863914489746,-0.49232324957847595
1744883849841597200,20.72659716796875,8.94137954711914,3.2656047344207764,-0.4785645306110382
1744883849858408700,20.74340869140625,9.061619758605957,3.146561861038208,-0.46002015471458435
1744883849875220000,20.760219970703126,9.148957252502441,3.0131618976593018,-0.5084748268127441
1744883849892030000,20.777030029296874,9.224929809570312,3.0233314037323,-0.5276173949241638
1744883849908826000,20.793826171875,9.421140670776367,2.981456995010376,-0.5575276613235474
1744883849925652200,20.81065234375,9.70349407196045,2.892324447631836,-0.5581258535385132
