time,seconds_elapsed,z,y,x
1744883829155645000,0.04064501953125,0.0871896743774414,0.03622078895568848,0.07478737831115723
1744883829172449800,0.05744970703125,0.04484081268310547,-0.00018525123596191406,-0.0024479031562805176
1744883829189265200,0.07426513671875,-0.038062095642089844,0.004631519317626953,-0.013706058263778687
1744883829206080500,0.09108056640625,-0.1415090560913086,0.036864519119262695,-0.007399111986160278
1744883829222889000,0.107888916015625,-0.18874263763427734,0.049036502838134766,0.015203684568405151
1744883829239688000,0.12468798828125,-0.18201923370361328,0.05597186088562012,-0.024640202522277832
1744883829256511200,0.14151123046875,-0.1262664794921875,0.04521441459655762,-0.05984991788864136
1744883829273319400,0.1583193359375,-0.0652303695678711,0.03420615196228027,0.0026289820671081543
1744883829290136800,0.17513671875,-0.01763439178466797,0.03901362419128418,0.014711230993270874
1744883829306944800,0.19194482421875,0.01816558837890625,0.052951812744140625,-0.03611743450164795
1744883829323757300,0.20875732421875,0.059001922607421875,0.06778335571289062,0.025301575660705566
1744883829340551700,0.2255517578125,0.05994415283203125,0.06840991973876953,0.06551802158355713
1744883829357377500,0.24237744140625,0.02920246124267578,0.0633542537689209,0.019869238138198853
1744883829374188800,0.259188720703125,-0.014965057373046875,0.06845998764038086,-0.0014306306838989258
1744883829390999600,0.27599951171875,-0.07797527313232422,0.056777238845825195,0.02277243137359619
1744883829407810800,0.292810791015625,-0.13385677337646484,0.017954587936401367,0.036435067653656006
1744883829424619000,0.309618896484375,-0.16746139526367188,0.008519411087036133,0.060738205909729004
1744883829441435400,0.326435302734375,-0.211212158203125,0.02791738510131836,0.059981852769851685
1744883829458243800,0.343243896484375,-0.27936267852783203,0.032500505447387695,0.03560221195220947
1744883829475055000,0.36005517578125,-0.32973194122314453,0.06937384605407715,0.08484366536140442
1744883829491865600,0.376865478515625,-0.3233795166015625,0.12206768989562988,0.10863944888114929
1744883829508664000,0.3936640625,-0.17167091369628906,0.1758713722229004,0.05474451184272766
1744883829525487600,0.410487548828125,0.08592033386230469,0.20677685737609863,0.046138256788253784
1744883829542299100,0.427299072265625,0.32041168212890625,0.23349428176879883,0.03192749619483948
1744883829559110700,0.444110595703125,0.4230308532714844,0.24425077438354492,0.0035528242588043213
1744883829575920000,0.460920166015625,0.4130678176879883,0.15793752670288086,0.01269596815109253
1744883829592731000,0.47773095703125,0.4778604507446289,0.17835164070129395,-0.0051683783531188965
1744883829609544200,0.494544189453125,0.49209022521972656,0.13575220108032227,0.015077680349349976
1744883829626353700,0.511353759765625,0.4791402816772461,0.02214789390563965,0.008901864290237427
1744883829643164400,0.528164306640625,0.39156627655029297,-0.06356358528137207,0.03238171339035034
1744883829659977200,0.544977294921875,0.2156047821044922,-0.14792180061340332,0.015125691890716553
1744883829676787500,0.561787353515625,-0.00022792816162109375,-0.18294668197631836,0.00717693567276001
1744883829693597700,0.57859765625,-0.16835689544677734,-0.16997051239013672,0.035953789949417114
1744883829710409500,0.595409423828125,-0.29584789276123047,-0.1817607879638672,0.0763637125492096
1744883829727219700,0.6122197265625,-0.3465118408203125,-0.19718503952026367,0.09463658928871155
1744883829744031500,0.629031494140625,-0.2990121841430664,-0.18729877471923828,0.05437609553337097
1744883829760842000,0.645842041015625,-0.17222023010253906,-0.1462876796722412,-0.0023611485958099365
1744883829777653500,0.662653564453125,0.025342941284179688,-0.10352540016174316,-0.038418352603912354
1744883829794461000,0.6794609375,0.19557571411132812,-0.06385493278503418,-0.044699519872665405
1744883829811278600,0.696278564453125,0.33340930938720703,-0.0781710147857666,-0.05902358889579773
1744883829828086000,0.7130859375,0.3912200927734375,-0.08749699592590332,-0.06008651852607727
1744883829844897500,0.7298974609375,0.35472583770751953,-0.09286022186279297,-0.014053672552108765
1744883829861708300,0.746708251953125,0.17589569091796875,-0.09094929695129395,0.023203402757644653
1744883829878513200,0.76351318359375,-0.030378341674804688,-0.058281898498535156,0.013464748859405518
1744883829895330000,0.780330078125,-0.22221851348876953,-0.022014617919921875,0.01176607608795166
1744883829912141800,0.797141845703125,-0.31139564514160156,-0.015078306198120117,-0.016450554132461548
1744883829928940800,0.81394091796875,-0.2966957092285156,-0.005768537521362305,-0.025036334991455078
1744883829945763600,0.830763671875,-0.2024707794189453,-0.025271892547607422,-0.039846837520599365
1744883829962577200,0.8475771484375,-0.04489898681640625,-0.04945683479309082,-0.04473292827606201
1744883829979370800,0.864370849609375,0.06989288330078125,-0.07719731330871582,-0.04187977313995361
1744883829996196400,0.8811962890625,0.14359188079833984,-0.0987846851348877,-0.03746086359024048
1744883830013008000,0.8980078125,0.1639547348022461,-0.10772180557250977,-0.01141086220741272
1744883830029818400,0.914818359375,0.0949697494506836,-0.08830547332763672,-0.006880998611450195
1744883830046630000,0.9316298828125,-0.0015573501586914062,-0.09482431411743164,-0.001792609691619873
1744883830063437000,0.94843701171875,-0.12288761138916016,-0.08556985855102539,-0.00774538516998291
1744883830080255000,0.9652548828125,-0.2582979202270508,-0.06871771812438965,-0.0017921030521392822
1744883830097062400,0.9820625,-0.35580921173095703,-0.05989670753479004,0.022840529680252075
1744883830113874000,0.9988740234375,-0.38631629943847656,-0.055237770080566406,0.010915637016296387
1744883830130684400,1.015684326171875,-0.3279991149902344,-0.06739068031311035,-0.025732308626174927
1744883830147496200,1.03249609375,-0.2980661392211914,-0.08424735069274902,-0.08585211634635925
1744883830164301300,1.04930126953125,-0.2632150650024414,-0.06671404838562012,-0.01793530583381653
1744883830181123000,1.066123046875,-0.21515369415283203,-0.04661059379577637,0.00954967737197876
1744883830197928400,1.082928466796875,-0.22469806671142578,0.005891561508178711,-0.006946176290512085
1744883830214740000,1.099739990234375,-0.2204418182373047,0.08449506759643555,0.05845874547958374
1744883830231550500,1.116550537109375,-0.2817554473876953,0.07338309288024902,0.027764052152633667
1744883830248362500,1.133362548828125,-0.2523956298828125,0.1459345817565918,0.029146969318389893
1744883830265172500,1.15017236328125,-0.30071163177490234,0.1994795799255371,0.031092554330825806
1744883830281982700,1.166982666015625,-0.25966453552246094,0.26084232330322266,0.06891998648643494
1744883830298783700,1.18378369140625,-0.12814807891845703,0.2311708927154541,0.13852271437644958
1744883830315607000,1.20060693359375,0.083709716796875,0.21921062469482422,0.06180232763290405
1744883830332416500,1.21741650390625,0.27568817138671875,0.14365911483764648,-0.08835381269454956
1744883830349228300,1.234228271484375,0.3690176010131836,0.05746817588806152,-0.1428995132446289
1744883830366038500,1.25103857421875,0.30360984802246094,0.005348920822143555,-0.10496461391448975
1744883830382850000,1.26785009765625,0.12658405303955078,-0.014079093933105469,-0.056623756885528564
1744883830399658000,1.284657958984375,-0.042710304260253906,0.004147052764892578,0.0075904130935668945
1744883830416489000,1.301489013671875,-0.0570220947265625,-0.017774581909179688,0.07701915502548218
1744883830433282800,1.31828271484375,0.08929252624511719,-0.0670921802520752,0.07552546262741089
1744883830450094000,1.335093994140625,0.2975578308105469,-0.12540292739868164,0.018555939197540283
1744883830466904000,1.351904052734375,0.45844554901123047,-0.1857759952545166,0.004243731498718262
1744883830483716400,1.36871630859375,0.4011116027832031,-0.23617053031921387,0.005701899528503418
1744883830500526800,1.38552685546875,0.31516361236572266,-0.2620975971221924,0.0727759301662445
1744883830517338400,1.40233837890625,0.2556915283203125,-0.25286197662353516,0.20249471068382263
1744883830534148900,1.41914892578125,0.15208721160888672,-0.24817204475402832,0.15170156955718994
1744883830550957000,1.43595703125,0.12388229370117188,-0.20107245445251465,0.08180835843086243
1744883830567758600,1.452758544921875,0.10053062438964844,-0.16645479202270508,0.07836386561393738
1744883830584567000,1.469567138671875,0.09606647491455078,-0.11538314819335938,0.07378080487251282
1744883830601397500,1.4863974609375,0.0947103500366211,-0.0640716552734375,0.058942586183547974
1744883830618199800,1.50319970703125,0.08665180206298828,-0.020221471786499023,0.06691977381706238
1744883830635018800,1.520018798828125,0.07845115661621094,0.012591838836669922,0.08368143439292908
1744883830651823000,1.536822998046875,0.08185386657714844,0.005541324615478516,0.0926389992237091
1744883830668624100,1.5536240234375,0.14773273468017578,0.01892709732055664,0.06406766176223755
1744883830685448700,1.57044873046875,0.27170276641845703,0.060532569885253906,0.007293105125427246
1744883830702259200,1.58725927734375,0.36839771270751953,0.07420492172241211,-0.02033001184463501
1744883830719070700,1.60407080078125,0.4278450012207031,0.05074930191040039,-0.05323418974876404
1744883830735880000,1.6208798828125,0.41472911834716797,0.02141261100769043,-0.12427085638046265
1744883830752694000,1.637694091796875,0.39519405364990234,-0.009038925170898438,-0.06451019644737244
1744883830769515800,1.654515869140625,0.30399608612060547,-0.043161630630493164,0.015446007251739502
1744883830786314800,1.671314697265625,0.23578166961669922,-0.0821068286895752,0.08979466557502747
1744883830803122000,1.688121826171875,0.22365093231201172,-0.07079482078552246,0.07011356949806213
1744883830819940000,1.704940185546875,0.41919708251953125,-0.10037708282470703,0.029617279767990112
1744883830836744200,1.721744140625,0.6450290679931641,-0.20680618286132812,0.05287380516529083
1744883830853561900,1.738561767578125,0.8763437271118164,-0.35024499893188477,0.06708917021751404
1744883830870368300,1.7553681640625,0.8848485946655273,-0.4331204891204834,0.036191895604133606
1744883830887181600,1.772181640625,0.6794300079345703,-0.49476146697998047,-0.07121396064758301
1744883830904006000,1.789005859375,0.27951622009277344,-0.5164592266082764,-0.07708355784416199
1744883830920803000,1.805802978515625,-0.2318553924560547,-0.5121951103210449,0.030892550945281982
1744883830937613300,1.82261328125,-0.6468629837036133,-0.47254347801208496,0.1901814341545105
1744883830954421800,1.839421875,-0.9626359939575195,-0.3598299026489258,0.1757241040468216
1744883830971238700,1.85623876953125,-1.1101751327514648,-0.29024291038513184,0.05202552676200867
1744883830988046800,1.873046875,-1.2089347839355469,-0.2131803035736084,0.06873710453510284
1744883831004835600,1.889835693359375,-1.001230239868164,-0.1808643341064453,0.27278047800064087
1744883831021669000,1.906669189453125,-0.6791419982910156,-0.17099833488464355,0.24737843871116638
1744883831038466300,1.92346630859375,-0.40267181396484375,-0.09953856468200684,0.011152759194374084
1744883831055291100,1.940291015625,-0.355194091796875,-0.0313258171081543,-0.11380888521671295
1744883831072101400,1.957101318359375,-0.49382877349853516,0.036550283432006836,-0.12074342370033264
1744883831088901000,1.973901123046875,-0.6574792861938477,0.12964749336242676,-0.07969364523887634
1744883831105702000,1.990701904296875,-0.6929788589477539,0.26909756660461426,-0.11416694521903992
1744883831122523400,2.0075234375,-0.4710721969604492,0.3557319641113281,-0.23636314272880554
1744883831139345700,2.024345703125,-0.1462259292602539,0.38541102409362793,-0.3778243958950043
1744883831156145000,2.041144775390625,0.2384052276611328,0.36065220832824707,-0.384053498506546
1744883831172967400,2.057967529296875,0.48191356658935547,0.2769789695739746,-0.31221285462379456
1744883831189779200,2.074779296875,0.5703573226928711,0.17969679832458496,-0.25975432991981506
1744883831206576600,2.09157666015625,0.5076169967651367,0.13909459114074707,-0.23238757252693176
1744883831223401000,2.10840087890625,0.3462047576904297,0.09482574462890625,-0.14262214303016663
1744883831240200000,2.125199951171875,0.13682842254638672,0.016916990280151367,-0.07158151268959045
1744883831257023200,2.142023193359375,-0.07390022277832031,-0.08284783363342285,-0.07161971926689148
1744883831273833700,2.158833740234375,-0.23674392700195312,-0.17710256576538086,0.0017738640308380127
1744883831290645200,2.175645263671875,-0.32578372955322266,-0.21085214614868164,0.08080977201461792
1744883831307455700,2.192455810546875,-0.37418651580810547,-0.2379288673400879,0.11958551406860352
1744883831324264000,2.209263916015625,-0.35128116607666016,-0.20981073379516602,0.131118506193161
1744883831341076200,2.226076171875,-0.33585357666015625,-0.16953158378601074,0.13686472177505493
1744883831357889300,2.24288916015625,-0.26204681396484375,-0.1449875831604004,0.19622018933296204
1744883831374696700,2.25969677734375,-0.12738990783691406,-0.11804890632629395,0.21498724818229675
1744883831391514600,2.2765146484375,-0.0072002410888671875,-0.05329585075378418,0.17994830012321472
1744883831408321800,2.29332177734375,0.08376407623291016,0.018770456314086914,0.20033371448516846
1744883831425133800,2.3101337890625,0.16912364959716797,0.09767508506774902,0.18654793500900269
1744883831441941000,2.32694091796875,0.23949909210205078,0.15176725387573242,0.1570301651954651
1744883831458743300,2.343743408203125,0.24916934967041016,0.17097759246826172,0.13538876175880432
1744883831475565800,2.36056591796875,0.22545337677001953,0.17382359504699707,0.09506726264953613
1744883831492377300,2.37737744140625,0.1834115982055664,0.15870881080627441,0.07120496034622192
1744883831509188000,2.39418798828125,0.12451648712158203,0.12757110595703125,0.07495960593223572
1744883831525999600,2.41099951171875,0.07141780853271484,0.10089468955993652,0.04680079221725464
1744883831542810000,2.42781005859375,0.013594627380371094,0.08403158187866211,0.011783301830291748
1744883831559621600,2.44462158203125,-0.04265880584716797,0.04625701904296875,0.028446227312088013
1744883831576432000,2.46143212890625,-0.09527015686035156,0.008436203002929688,0.015370696783065796
1744883831593243400,2.478243408203125,-0.14479446411132812,-0.020895719528198242,-0.023492276668548584
1744883831610054100,2.49505419921875,-0.17671966552734375,-0.041489601135253906,-0.009470224380493164
1744883831626871300,2.511871337890625,-0.18375492095947266,-0.04628181457519531,0.01987302303314209
1744883831643676200,2.52867626953125,-0.20152950286865234,-0.023794174194335938,0.028241842985153198
1744883831660488200,2.54548828125,-0.16226577758789062,-0.009719371795654297,0.003340214490890503
1744883831677298200,2.562298095703125,-0.05692863464355469,0.02116847038269043,-0.001751720905303955
1744883831694109700,2.579109619140625,0.0218048095703125,0.03035426139831543,0.02687203884124756
1744883831710920400,2.59592041015625,0.08863353729248047,0.05322432518005371,0.031365424394607544
1744883831727730200,2.612730224609375,0.0773000717163086,0.06717634201049805,0.05444014072418213
1744883831744540700,2.629540771484375,0.006098747253417969,0.07187247276306152,0.09391897916793823
1744883831761356800,2.646356689453125,-0.0628814697265625,0.08791399002075195,0.10260888934135437
1744883831778161400,2.663161376953125,-0.0927896499633789,0.09083867073059082,0.07327988743782043
1744883831794978800,2.679978759765625,-0.06471538543701172,0.10946917533874512,0.05493319034576416
1744883831811786500,2.696786376953125,-0.002216339111328125,0.139847993850708,0.058518409729003906
1744883831828585500,2.71358544921875,0.06504249572753906,0.13348770141601562,0.05971941351890564
1744883831845411600,2.73041162109375,0.10258102416992188,0.1472632884979248,-0.0009466409683227539
1744883831862220300,2.74722021484375,0.11104297637939453,0.12875628471374512,-0.020446807146072388
1744883831879030500,2.764030517578125,0.07917499542236328,0.1298844814300537,0.0030211806297302246
1744883831895842000,2.780842041015625,0.07947349548339844,0.12583327293395996,-0.022666603326797485
1744883831912652500,2.797652587890625,0.10349273681640625,0.13144969940185547,-0.056315451860427856
1744883831929464000,2.814464111328125,0.08753585815429688,0.12552976608276367,-0.058968186378479004
1744883831946274600,2.831274658203125,0.051415443420410156,0.13695621490478516,-0.07444801926612854
1744883831963085000,2.8480849609375,-0.012622833251953125,0.13216876983642578,-0.05649012327194214
1744883831979897600,2.864897705078125,-0.0879507064819336,0.10216379165649414,-0.025698184967041016
1744883831996708400,2.881708251953125,-0.12320232391357422,0.0724494457244873,0.010920971632003784
1744883832013518600,2.8985185546875,-0.153594970703125,0.03764176368713379,0.03997483849525452
1744883832030330400,2.915330322265625,-0.08843040466308594,0.028162717819213867,0.11451320350170135
1744883832047141000,2.93214111328125,-0.22347259521484375,-0.030370235443115234,0.028854668140411377
1744883832063950000,2.9489501953125,-0.3993110656738281,0.015268087387084961,0.08159759640693665
1744883832080765200,2.96576513671875,-0.5344343185424805,0.06910943984985352,0.10146623849868774
1744883832097574700,2.98257470703125,-0.655278205871582,0.16507863998413086,0.05683088302612305
1744883832114382800,2.9993828125,-0.5570173263549805,0.21652793884277344,0.048457056283950806
1744883832131198500,3.016198486328125,-0.2503833770751953,0.1968975067138672,0.015551388263702393
1744883832148007000,3.0330068359375,0.023560523986816406,0.3530433177947998,-0.04851174354553223
1744883832164815600,3.049815673828125,0.3351573944091797,0.4080941677093506,-0.042308300733566284
1744883832181631500,3.066631591796875,0.6227998733520508,0.2840745449066162,0.0310821533203125
1744883832198418200,3.083418212890625,0.7776069641113281,0.3115661144256592,0.005590617656707764
1744883832215251000,3.1002509765625,0.8036518096923828,0.20995879173278809,-0.19381743669509888
1744883832232062500,3.1170625,0.7205953598022461,0.11611270904541016,-0.3507646322250366
1744883832248872700,3.133872802734375,0.5648841857910156,0.01668548583984375,-0.3556077480316162
1744883832265681400,3.150681396484375,0.3164091110229492,-0.09602618217468262,-0.3201393485069275
1744883832282504000,3.16750390625,0.0745849609375,-0.16286659240722656,-0.3283277750015259
1744883832299306500,3.184306396484375,-0.049546241760253906,-0.42383670806884766,-0.32187968492507935
1744883832316117000,3.201116943359375,-0.09888935089111328,-0.503140926361084,-0.5945491790771484
1744883832332919600,3.21791943359375,-0.2078704833984375,-0.18208050727844238,-0.3582788109779358
1744883832349739000,3.234739013671875,-0.3145580291748047,-0.0220947265625,-0.13973504304885864
1744883832366535200,3.25153515625,-0.3924064636230469,-0.020687341690063477,0.1386483907699585
1744883832383360500,3.268360595703125,-0.40013980865478516,0.005446434020996094,0.29027116298675537
1744883832400177000,3.285177001953125,-0.37178707122802734,0.06504678726196289,0.28782767057418823
1744883832416983000,3.301983154296875,-0.2772655487060547,0.03616738319396973,0.24441802501678467
1744883832433794800,3.318794921875,-0.12241458892822266,0.001667022705078125,0.1650269329547882
1744883832450605300,3.335605224609375,-0.03044605255126953,0.011020898818969727,0.11687710881233215
1744883832467416800,3.352416748046875,0.0682668685913086,0.04256916046142578,0.145952969789505
1744883832484223700,3.3692236328125,0.1336803436279297,0.043434858322143555,0.08531999588012695
1744883832501039000,3.3860390625,0.09649848937988281,0.02634429931640625,-0.010354042053222656
1744883832517852400,3.402852294921875,0.08085060119628906,0.021199941635131836,-0.06685656309127808
1744883832534657500,3.419657470703125,0.1328592300415039,0.0032253265380859375,-0.04350477457046509
1744883832551474400,3.436474365234375,0.1682424545288086,0.010332822799682617,-0.03055456280708313
1744883832568269600,3.45326953125,0.24579524993896484,0.02387237548828125,-0.005542129278182983
1744883832585093400,3.47009326171875,0.2542610168457031,-0.006141185760498047,-0.024126112461090088
1744883832601904600,3.486904541015625,0.257659912109375,-0.04778575897216797,-0.04728728532791138
1744883832618704000,3.503703857421875,0.16769790649414062,-0.07471084594726562,-0.04043912887573242
1744883832635526700,3.520526611328125,0.021149635314941406,-0.09872245788574219,-0.04317057132720947
1744883832652337400,3.53733740234375,-0.10157585144042969,-0.09743380546569824,-0.0629427433013916
1744883832669132800,3.5541328125,-0.15419673919677734,-0.09001374244689941,-0.056120097637176514
1744883832685959400,3.57095947265625,-0.14187049865722656,-0.1048731803894043,-0.004686832427978516
1744883832702771000,3.58777099609375,-0.12236881256103516,-0.12212061882019043,-0.004024505615234375
1744883832719582500,3.60458251953125,-0.11493682861328125,-0.10322880744934082,-0.056742310523986816
1744883832736389400,3.621389404296875,-0.1053762435913086,-0.11045432090759277,-0.07576191425323486
1744883832753206300,3.638206298828125,-0.07577991485595703,-0.13004755973815918,-0.017031371593475342
1744883832770027800,3.65502783203125,-0.06548213958740234,-0.13263893127441406,0.05617532134056091
1744883832786825500,3.671825439453125,-0.050327301025390625,-0.12424302101135254,0.08092731237411499
1744883832803637000,3.688636962890625,0.011960029602050781,-0.09652924537658691,0.0538153350353241
1744883832820447500,3.705447509765625,0.08591651916503906,-0.09421610832214355,0.05994778871536255
1744883832837256000,3.722255859375,0.14025402069091797,-0.08764028549194336,0.08443152904510498
1744883832854073000,3.739072998046875,0.13713455200195312,-0.07133221626281738,0.08358028531074524
1744883832870881300,3.75588134765625,0.09004688262939453,-0.05381917953491211,0.09110945463180542
1744883832887679000,3.772678955078125,0.0074596405029296875,-0.057157039642333984,0.10191613435745239
1744883832904484900,3.78948486328125,-0.12490177154541016,-0.06550359725952148,0.0820765495300293
1744883832921315000,3.806315185546875,-0.19895172119140625,-0.0771486759185791,0.06540295481681824
1744883832938125300,3.823125244140625,-0.23082256317138672,-0.07493782043457031,0.05196279287338257
1744883832954935800,3.839935791015625,-0.21146106719970703,-0.08308100700378418,-0.010131597518920898
1744883832971747300,3.856747314453125,-0.15829181671142578,-0.08313870429992676,-0.0619964599609375
1744883832988566300,3.873566162109375,-0.1351785659790039,-0.09978079795837402,-0.05020129680633545
1744883833005358000,3.890358154296875,-0.11425113677978516,-0.12295722961425781,-0.020847439765930176
1744883833022184400,3.907184326171875,-0.123992919921875,-0.1341853141784668,-0.01975315809249878
1744883833038991600,3.92399169921875,-0.13732337951660156,-0.14021778106689453,-0.04462248086929321
1744883833055801900,3.9408017578125,-0.1468658447265625,-0.13715696334838867,-0.05036094784736633
1744883833072613400,3.95761328125,-0.1612873077392578,-0.13968729972839355,-0.015633046627044678
1744883833089424100,3.974424072265625,-0.17293930053710938,-0.12969350814819336,-0.009051650762557983
1744883833106241500,3.991241455078125,-0.1963510513305664,-0.1479043960571289,-0.012257248163223267
1744883833123046100,4.008046142578125,-0.2263641357421875,-0.14984726905822754,-0.02105197310447693
1744883833139857700,4.024857666015625,-0.26038646697998047,-0.16106700897216797,-0.01902356743812561
1744883833156668200,4.041668212890625,-0.2786979675292969,-0.1402583122253418,-0.026676207780838013
1744883833173479700,4.058479736328125,-0.31346702575683594,-0.14189791679382324,-0.02401164174079895
1744883833190287000,4.075287109375,-0.36597251892089844,-0.15275216102600098,-0.0030556321144104004
1744883833207105000,4.09210498046875,-0.41838550567626953,-0.16379117965698242,0.007435321807861328
1744883833223906800,4.10890673828125,-0.426239013671875,-0.167694091796875,0.006364673376083374
1744883833240723700,4.1257236328125,-0.4169330596923828,-0.1548168659210205,0.011154800653457642
1744883833257534500,4.142534423828125,-0.3920869827270508,-0.14531993865966797,0.029808372259140015
1744883833274342700,4.1593427734375,-0.3465251922607422,-0.1306140422821045,0.06187918782234192
1744883833291159600,4.17615966796875,-0.2838134765625,-0.1160733699798584,0.10823395848274231
1744883833307967700,4.1929677734375,-0.23103809356689453,-0.14333081245422363,0.08555668592453003
1744883833324775000,4.20977490234375,-0.22950363159179688,-0.10148358345031738,0.07449358701705933
1744883833341587200,4.226587158203125,-0.2745170593261719,-0.13932561874389648,0.017791301012039185
1744883833358400500,4.243400390625,-0.30376148223876953,-0.0741720199584961,0.09747052192687988
1744883833375212000,4.2602119140625,-0.28943729400634766,-0.09275555610656738,0.12512820959091187
1744883833392022800,4.277022705078125,-0.20798969268798828,-0.08405423164367676,0.15251007676124573
1744883833408823800,4.29382373046875,-0.2324686050415039,-0.10809731483459473,0.09938636422157288
1744883833425644300,4.310644287109375,-0.2462005615234375,-0.09222817420959473,0.09369763731956482
1744883833442443300,4.327443359375,-0.28283214569091797,-0.07013273239135742,0.08049029111862183
1744883833459266600,4.3442666015625,-0.2682466506958008,-0.06354737281799316,0.09179168939590454
1744883833476078300,4.361078369140625,-0.27640533447265625,-0.08755111694335938,0.09920671582221985
1744883833492888600,4.377888671875,-0.2891387939453125,-0.10976552963256836,0.06269970536231995
1744883833509700400,4.394700439453125,-0.3616151809692383,-0.12462472915649414,0.043773800134658813
1744883833526510600,4.411510498046875,-0.4648456573486328,-0.13622617721557617,0.053082823753356934
1744883833543322000,4.428322021484375,-0.5432939529418945,-0.13014888763427734,0.07251518964767456
1744883833560120600,4.44512060546875,-0.633021354675293,-0.1371607780456543,0.07949179410934448
1744883833576944000,4.461944091796875,-0.6642246246337891,-0.15712976455688477,0.060904115438461304
1744883833593754600,4.478754638671875,-0.6422290802001953,-0.1859431266784668,0.0511229932308197
1744883833610566100,4.495566162109375,-0.576024055480957,-0.19703388214111328,0.033062517642974854
1744883833627376600,4.512376708984375,-0.5351791381835938,-0.1758565902709961,0.012731701135635376
1744883833644188400,4.5291884765625,-0.5446357727050781,-0.1724708080291748,0.012249141931533813
1744883833660986400,4.545986328125,-0.5572834014892578,-0.15902376174926758,0.05869555473327637
1744883833677810400,4.562810546875,-0.5680141448974609,-0.1400129795074463,0.07035753130912781
1744883833694605000,4.57960498046875,-0.5763425827026367,-0.10066843032836914,0.04985153675079346
1744883833711435300,4.596435302734375,-0.5583209991455078,-0.08400821685791016,0.05834585428237915
1744883833728243000,4.613242919921875,-0.5604896545410156,-0.07812762260437012,0.05001917481422424
1744883833745054500,4.630054443359375,-0.5440998077392578,-0.1084601879119873,0.04126712679862976
1744883833761865000,4.646864990234375,-0.5593175888061523,-0.11363101005554199,0.03230005502700806
1744883833778663400,4.663663330078125,-0.5846185684204102,-0.11025643348693848,0.05002900958061218
1744883833795487000,4.680487060546875,-0.5525922775268555,-0.13222336769104004,0.0623299777507782
1744883833812298500,4.697298583984375,-0.5540933609008789,-0.15530133247375488,0.03430163860321045
1744883833829109200,4.714109130859375,-0.5880374908447266,-0.19098424911499023,0.01446765661239624
1744883833845920500,4.73092041015625,-0.6378564834594727,-0.19097685813903809,0.017927110195159912
1744883833862731000,4.74773095703125,-0.6575775146484375,-0.19471335411071777,0.04745978116989136
1744883833879542800,4.764542724609375,-0.7935886383056641,-0.18337607383728027,0.08390337228775024
1744883833896353000,4.78135302734375,-0.9136018753051758,-0.256237268447876,0.07909289002418518
1744883833913164500,4.79816455078125,-0.9683046340942383,-0.29950857162475586,0.05367162823677063
1744883833929975300,4.814975341796875,-0.8747777938842773,-0.27219486236572266,0.17851996421813965
1744883833946786800,4.831786865234375,-0.7936172485351562,-0.20827460289001465,0.27013057470321655
1744883833963597300,4.848597412109375,-0.702117919921875,-0.09177803993225098,0.2210017442703247
1744883833980408800,4.865408935546875,-0.5853347778320312,0.055532217025756836,0.07831013202667236
1744883833997219300,4.88221923828125,-0.44243717193603516,0.1799461841583252,-0.01670214533805847
1744883834014030600,4.899030517578125,-0.16656017303466797,0.26937413215637207,-0.11341783404350281
1744883834030841300,4.91584130859375,0.15657997131347656,0.3210325241088867,-0.26892876625061035
1744883834047649500,4.9326494140625,0.4320030212402344,0.3007011413574219,-0.3932948708534241
1744883834064463400,4.94946337890625,0.5554962158203125,0.24739813804626465,-0.36344414949417114
1744883834081278200,4.9662783203125,0.5266380310058594,0.1900637149810791,-0.24254971742630005
1744883834098085400,4.98308544921875,0.4403362274169922,0.17750263214111328,-0.1365852952003479
1744883834114897000,4.99989697265625,0.2574167251586914,0.19397521018981934,-0.10239434242248535
1744883834131707400,5.016707275390625,-0.03165149688720703,0.12158823013305664,-0.08448284864425659
1744883834148513300,5.03351318359375,-0.36032867431640625,-0.008532047271728516,0.02774938941001892
1744883834165329400,5.050329345703125,-0.6157932281494141,-0.1629014015197754,0.2016202211380005
1744883834182141200,5.06714111328125,-0.7967758178710938,-0.27954840660095215,0.2907770574092865
1744883834198938400,5.0839384765625,-0.7956733703613281,-0.32044339179992676,0.3229959011077881
1744883834215763200,5.10076318359375,-0.6886186599731445,-0.32137489318847656,0.3557201623916626
1744883834232573400,5.117573486328125,-0.49234962463378906,-0.313124418258667,0.3431171774864197
1744883834249385200,5.13438525390625,-0.32602500915527344,-0.3299221992492676,0.22600743174552917
1744883834266193700,5.151193603515625,-0.1885366439819336,-0.3318500518798828,0.1070094108581543
1744883834283006000,5.168005859375,-0.12014293670654297,-0.3122093677520752,0.0645642876625061
1744883834299821300,5.1848212890625,-0.11697673797607422,-0.2531430721282959,0.005549728870391846
1744883834316629200,5.201629150390625,-0.16386795043945312,-0.18787288665771484,-0.047779738903045654
1744883834333439700,5.218439697265625,-0.28307628631591797,-0.1334996223449707,-0.10339337587356567
1744883834350251500,5.23525146484375,-0.4906120300292969,-0.11015152931213379,-0.06693094968795776
1744883834367058700,5.25205859375,-0.7293119430541992,-0.11884593963623047,-0.04562002420425415
1744883834383878100,5.268878173828125,-0.9143877029418945,-0.16898059844970703,-0.05332815647125244
1744883834400682500,5.2856826171875,-0.9845962524414062,-0.21467018127441406,-0.049938857555389404
1744883834417495600,5.30249560546875,-0.9591503143310547,-0.2384483814239502,0.00894784927368164
1744883834434306800,5.319306884765625,-0.8267993927001953,-0.23721790313720703,0.03215944766998291
1744883834451116800,5.33611669921875,-0.6626777648925781,-0.24281835556030273,0.017059922218322754
1744883834467928300,5.35292822265625,-0.4560689926147461,-0.24654841423034668,-0.0005335807800292969
1744883834484736300,5.369736328125,-0.2872810363769531,-0.24163317680358887,-0.040471434593200684
1744883834501551600,5.386551513671875,-0.21962833404541016,-0.20472192764282227,-0.03982728719711304
1744883834518363400,5.40336328125,-0.23648738861083984,-0.13456439971923828,-0.03574955463409424
1744883834535172600,5.420172607421875,-0.3438854217529297,-0.09246063232421875,-0.01904904842376709
1744883834551983900,5.43698388671875,-0.48148250579833984,-0.06944489479064941,-0.015280067920684814
1744883834568783000,5.453783203125,-0.6083488464355469,-0.0722196102142334,-0.03646218776702881
1744883834585605600,5.470605712890625,-0.6840715408325195,-0.07302522659301758,-0.023306071758270264
1744883834602413000,5.4874130859375,-0.6959972381591797,-0.09314799308776855,-0.013667881488800049
1744883834619231200,5.504231201171875,-0.6556072235107422,-0.12190437316894531,0.017113327980041504
1744883834636038400,5.521038330078125,-0.6106700897216797,-0.17085480690002441,0.03801339864730835
1744883834652849700,5.537849609375,-0.5979461669921875,-0.24384641647338867,0.027838677167892456
1744883834669647400,5.5546474609375,-0.6330604553222656,-0.29093074798583984,-0.002016007900238037
1744883834686472200,5.57147216796875,-0.6628684997558594,-0.30235958099365234,-0.005184650421142578
1744883834703279000,5.588279052734375,-0.6874380111694336,-0.2958261966705322,0.04955416917800903
1744883834720097300,5.60509716796875,-0.6796407699584961,-0.26357245445251465,0.06007182598114014
1744883834736902000,5.62190185546875,-0.6526527404785156,-0.20885491371154785,0.03184834122657776
1744883834753718500,5.638718505859375,-0.5985031127929688,-0.17290949821472168,0.045480877161026
1744883834770538200,5.655538330078125,-0.5081281661987305,-0.15010881423950195,0.06540679931640625
1744883834787338000,5.672337890625,-0.4326801300048828,-0.09894204139709473,0.06295952200889587
1744883834804145400,5.6891455078125,-0.39555931091308594,-0.03613638877868652,0.03255698084831238
1744883834820963300,5.70596337890625,-0.29257678985595703,-0.02646803855895996,0.09139442443847656
1744883834837761000,5.722760986328125,-0.1561574935913086,-0.018355607986450195,0.11170688271522522
1744883834854578200,5.739578125,-0.061344146728515625,-0.022207260131835938,0.1066436767578125
1744883834871395600,5.7563955078125,-0.03332805633544922,-0.03941655158996582,0.1022249162197113
1744883834888191200,5.773191162109375,-0.08145523071289062,-0.058599233627319336,0.10445678234100342
1744883834905021200,5.790021240234375,-0.20983505249023438,-0.07754349708557129,0.07041072845458984
1744883834921826300,5.806826416015625,-0.32001781463623047,-0.09113669395446777,0.08652466535568237
1744883834938620400,5.823620361328125,-0.3532371520996094,-0.09596514701843262,0.05441105365753174
1744883834955451400,5.840451416015625,-0.2798004150390625,-0.11069965362548828,0.03592422604560852
1744883834972258800,5.8572587890625,-0.1932992935180664,-0.120452880859375,0.035706281661987305
1744883834989070300,5.8740703125,-0.16631031036376953,-0.1555922031402588,0.014715015888214111
1744883835005880600,5.890880615234375,-0.22843170166015625,-0.17810392379760742,0.03038141131401062
1744883835022692900,5.90769287109375,-0.38812732696533203,-0.18035364151000977,0.03657728433609009
1744883835039502800,5.9245029296875,-0.5188112258911133,-0.16687750816345215,0.02007630467414856
1744883835056314400,5.941314453125,-0.5899658203125,-0.14026856422424316,0.014580398797988892
1744883835073110500,5.958110595703125,-0.5942525863647461,-0.12441873550415039,0.02720588445663452
1744883835089936400,5.974936279296875,-0.5111722946166992,-0.1161489486694336,0.043925464153289795
1744883835106747100,5.9917470703125,-0.4116201400756836,-0.11101245880126953,0.056055158376693726
1744883835123558400,6.008558349609375,-0.2908029556274414,-0.1119375228881836,0.054524779319763184
1744883835140369200,6.025369140625,-0.18625450134277344,-0.09569501876831055,0.0815449059009552
1744883835157180700,6.0421806640625,-0.13983726501464844,-0.09701657295227051,0.08779293298721313
1744883835173991200,6.0589912109375,-0.1528940200805664,-0.07419514656066895,0.06994840502738953
1744883835190802400,6.075802490234375,-0.21184158325195312,-0.06539440155029297,0.071875661611557
1744883835207615700,6.09261572265625,-0.2489604949951172,-0.05244183540344238,0.0988912582397461
1744883835224421400,6.10942138671875,-0.26599693298339844,-0.03226876258850098,0.09417778253555298
1744883835241238300,6.12623828125,-0.25243091583251953,-0.044628143310546875,0.07572519779205322
1744883835258046700,6.143046630859375,-0.22211074829101562,-0.0569765567779541,0.053427308797836304
1744883835274857200,6.159857177734375,-0.21150493621826172,-0.08603429794311523,0.040825486183166504
1744883835291668700,6.176668701171875,-0.21922779083251953,-0.09920310974121094,0.013388395309448242
1744883835308466400,6.193466552734375,-0.21741008758544922,-0.08225488662719727,-0.006054908037185669
1744883835325290800,6.210290771484375,-0.20452499389648438,-0.0629725456237793,-0.01097920536994934
1744883835342101800,6.227101806640625,-0.1857900619506836,-0.05103731155395508,-0.006507694721221924
1744883835358903800,6.24390380859375,-0.15764999389648438,-0.04197978973388672,-0.028644561767578125
1744883835375723300,6.26072314453125,-0.12507247924804688,-0.03745746612548828,-0.03596565127372742
1744883835392534800,6.27753466796875,-0.08096504211425781,-0.03447914123535156,-0.033677488565444946
1744883835409345500,6.294345458984375,-0.06373214721679688,-0.016051530838012695,0.010692298412322998
1744883835426157000,6.311156982421875,-0.032726287841796875,-0.004206180572509766,0.001115947961807251
1744883835442967600,6.327967529296875,-0.00853729248046875,-0.021715641021728516,-0.0042295753955841064
1744883835459778300,6.3447783203125,0.0043048858642578125,-0.055365800857543945,-0.012098163366317749
1744883835476590000,6.361590087890625,-0.023749351501464844,-0.07431578636169434,-0.0048968493938446045
1744883835493401000,6.378401123046875,-0.0843505859375,-0.06295037269592285,0.009561598300933838
1744883835510208300,6.395208251953125,-0.20464324951171875,-0.06958389282226562,0.009832710027694702
1744883835527026400,6.4120263671875,-0.29775428771972656,-0.07274889945983887,0.011472195386886597
1744883835543820500,6.428820556640625,-0.3258342742919922,-0.08475303649902344,-0.014238744974136353
1744883835560629200,6.445629150390625,-0.2550535202026367,-0.08649635314941406,-0.033997535705566406
1744883835577459200,6.462459228515625,-0.08159542083740234,-0.05222678184509277,-0.06501775979995728
1744883835594263800,6.479263916015625,0.09766674041748047,-0.02417755126953125,-0.0822443962097168
1744883835611080700,6.496080810546875,0.22567462921142578,-0.011291265487670898,-0.056548237800598145
1744883835627889200,6.51288916015625,0.1490316390991211,0.001850128173828125,-0.10580313205718994
1744883835644696600,6.529696533203125,0.15402698516845703,0.010943889617919922,-0.07437551021575928
1744883835661514500,6.546514404296875,0.21082210540771484,0.04199528694152832,-0.013925373554229736
1744883835678322000,6.563322021484375,0.19309711456298828,0.05100440979003906,-0.03083980083465576
1744883835695133400,6.580133544921875,0.1444387435913086,0.0622406005859375,-0.05290842056274414
1744883835711943700,6.596943603515625,0.08950233459472656,0.05431389808654785,-0.06281593441963196
1744883835728747800,6.613747802734375,0.03883552551269531,0.032630205154418945,-0.05802235007286072
1744883835745565700,6.630565673828125,0.008150100708007812,0.03180861473083496,-0.045798152685165405
1744883835762377500,6.64737744140625,-0.032341957092285156,0.010475635528564453,-0.04045385122299194
1744883835779188200,6.664188232421875,-0.0975799560546875,-0.019902706146240234,-0.029427319765090942
1744883835795999500,6.68099951171875,-0.18540287017822266,-0.06090521812438965,-0.01693737506866455
1744883835812810000,6.69781005859375,-0.2824134826660156,-0.07149791717529297,-0.00010284781455993652
1744883835829621500,6.71462158203125,-0.33075904846191406,-0.07161831855773926,0.024789124727249146
1744883835846432000,6.731431884765625,-0.29773712158203125,-0.06707119941711426,0.08167201280593872
1744883835863243500,6.748243408203125,-0.20405197143554688,-0.0713496208190918,0.10181644558906555
1744883835880054000,6.765053955078125,-0.05582714080810547,-0.06872057914733887,0.09553861618041992
1744883835896865800,6.78186572265625,0.0746917724609375,-0.05703616142272949,0.060135453939437866
1744883835913676300,6.79867626953125,0.12057113647460938,-0.04750204086303711,0.05093890428543091
1744883835930487800,6.81548779296875,0.08716201782226562,-0.06386113166809082,0.06770136952400208
1744883835947298000,6.832298095703125,-0.04613780975341797,-0.06638646125793457,0.08697819709777832
1744883835964109800,6.84910986328125,-0.2637147903442383,-0.08242177963256836,0.1836337447166443
1744883835980920300,6.86592041015625,-0.45900440216064453,-0.08767485618591309,0.2752370238304138
1744883835997732000,6.882732177734375,-0.5250177383422852,-0.08809661865234375,0.3126763701438904
1744883836014535700,6.89953564453125,-0.4092588424682617,-0.04924941062927246,0.29527926445007324
1744883836031357200,6.916357177734375,-0.18769550323486328,0.005228996276855469,0.22864820063114166
1744883836048164400,6.933164306640625,0.053813934326171875,0.06837868690490723,0.1018102765083313
1744883836064962800,6.949962890625,0.19220733642578125,0.0828394889831543,-0.04019796848297119
1744883836081786600,6.96678662109375,0.18730831146240234,0.04403877258300781,-0.11226454377174377
1744883836098589400,6.98358935546875,0.10353851318359375,0.0196988582611084,-0.14342468976974487
1744883836115393800,7.000393798828125,0.04361152648925781,0.024060726165771484,-0.16611221432685852
1744883836132220000,7.017219970703125,0.0884237289428711,0.06598877906799316,-0.1815473437309265
1744883836149030700,7.03403076171875,0.08961868286132812,0.08594250679016113,-0.14905935525894165
1744883836165840100,7.050840087890625,0.08542251586914062,0.061731815338134766,-0.12294167280197144
1744883836182652700,7.067652587890625,0.04975414276123047,0.01980733871459961,-0.12623322010040283
1744883836199464200,7.084464111328125,-0.043898582458496094,-0.06791329383850098,-0.07678556442260742
1744883836216274400,7.1012744140625,-0.19754791259765625,-0.14558744430541992,-0.049247682094573975
1744883836233086200,7.118086181640625,-0.32476139068603516,-0.19099664688110352,-0.009171128273010254
1744883836249896700,7.134896728515625,-0.4939002990722656,-0.17105841636657715,0.019248872995376587
1744883836266705000,7.151704833984375,-0.5524921417236328,-0.1554403305053711,0.04783052206039429
1744883836283522000,7.16852197265625,-0.48386096954345703,-0.12442517280578613,0.045478641986846924
1744883836300320300,7.1853203125,-0.2532377243041992,-0.08611583709716797,0.022922158241271973
1744883836317140700,7.202140625,0.09532928466796875,-0.04981565475463867,-0.007786571979522705
1744883836333952300,7.2189521484375,0.4564399719238281,0.04178595542907715,-0.05732244253158569
1744883836350763000,7.235762939453125,0.7621383666992188,0.14518189430236816,-0.06795120239257812
1744883836367571000,7.252571044921875,0.9260168075561523,0.220184326171875,-0.026451706886291504
1744883836384382500,7.269382568359375,0.9736413955688477,0.26470255851745605,-0.013634443283081055
1744883836401201700,7.28620166015625,0.8791885375976562,0.3019700050354004,-0.0367550253868103
1744883836418006800,7.3030068359375,0.6733007431030273,0.3339231014251709,-0.05243784189224243
1744883836434818300,7.319818359375,0.44579410552978516,0.3673379421234131,-0.0018085241317749023
1744883836451628800,7.33662890625,0.2385730743408203,0.4130721092224121,0.06590157747268677
1744883836468417800,7.353417724609375,0.028560638427734375,0.3436775207519531,0.037564635276794434
1744883836485251300,7.370251220703125,-0.1990528106689453,0.15784859657287598,-0.007664918899536133
1744883836502058800,7.387058837890625,-0.42252635955810547,-0.1098015308380127,0.03760614991188049
1744883836518863000,7.403863037109375,-0.5762434005737305,-0.3323631286621094,0.11897701025009155
1744883836535684400,7.420684326171875,-0.6057748794555664,-0.44138264656066895,0.045363008975982666
1744883836552494800,7.437494873046875,-0.5929460525512695,-0.4460265636444092,-0.007505863904953003
1744883836569306600,7.454306640625,-0.42471981048583984,-0.43660783767700195,0.03893083333969116
1744883836586116900,7.471116943359375,-0.20166397094726562,-0.3423013687133789,0.025562316179275513
1744883836602925300,7.48792529296875,0.047455787658691406,-0.24244332313537598,-0.036212921142578125
1744883836619742500,7.504742431640625,0.21753215789794922,-0.13971757888793945,-0.15245115756988525
1744883836636547800,7.5215478515625,0.20535850524902344,-0.07567286491394043,-0.20852380990982056
1744883836653350700,7.5383505859375,0.03428173065185547,-0.039725303649902344,-0.1257346272468567
1744883836670170400,7.55517041015625,-0.1916637420654297,-0.015032291412353516,0.054679542779922485
1744883836686979800,7.571979736328125,-0.4011678695678711,0.014586925506591797,0.15663301944732666
1744883836703800000,7.588800048828125,-0.5074739456176758,0.0310366153717041,0.19818991422653198
1744883836720603400,7.605603271484375,-0.4592437744140625,0.02152109146118164,0.1569553017616272
1744883836737418200,7.622418212890625,-0.2521219253540039,-0.005068778991699219,0.042178064584732056
1744883836754222000,7.63922216796875,0.07811737060546875,-0.0014023780822753906,-0.06705909967422485
1744883836771029200,7.656029296875,0.4433755874633789,0.044237375259399414,-0.11882317066192627
1744883836787849200,7.67284912109375,0.720001220703125,0.10072469711303711,-0.14615601301193237
1744883836804657700,7.68965771484375,0.8442020416259766,0.14786863327026367,-0.1631724238395691
1744883836821471700,7.7064716796875,0.7596578598022461,0.17730927467346191,-0.1852281093597412
1744883836838282200,7.7232822265625,0.517460823059082,0.1686110496520996,-0.13499683141708374
1744883836855096600,7.7400966796875,0.20337390899658203,0.14139032363891602,0.01715487241744995
1744883836871892000,7.75689208984375,-0.09936332702636719,0.11804914474487305,0.09599924087524414
1744883836888703200,7.773703125,-0.2937889099121094,0.09542489051818848,0.0744972825050354
1744883836905527000,7.790527099609375,-0.3161735534667969,0.07887721061706543,0.09008842706680298
1744883836922334200,7.807334228515625,-0.1588897705078125,0.08470559120178223,0.10030055046081543
1744883836939149800,7.82414990234375,0.11039352416992188,0.06307816505432129,0.10772645473480225
1744883836955962000,7.840962158203125,0.3504505157470703,0.007399320602416992,0.1290217638015747
1744883836972771000,7.85777099609375,0.5121984481811523,-0.05011320114135742,0.03237271308898926
1744883836989581600,7.87458154296875,0.6560840606689453,-0.02191615104675293,0.03875857591629028
1744883837006393000,7.89139306640625,0.5969057083129883,0.010502099990844727,0.10949847102165222
1744883837023203800,7.908203857421875,0.38773250579833984,-0.016825199127197266,0.1493302285671234
1744883837040015400,7.925015380859375,0.05065727233886719,-0.033707380294799805,0.13631808757781982
1744883837056822800,7.94182275390625,-0.33240699768066406,-0.04152703285217285,0.05618417263031006
1744883837073640000,7.958639892578125,-0.6347951889038086,-0.018687963485717773,0.011318206787109375
1744883837090447600,7.975447509765625,-0.8535451889038086,0.003261566162109375,0.03915673494338989
1744883837107270700,7.992270751953125,-0.9542646408081055,-0.005326986312866211,0.07398360967636108
1744883837124070000,8.00906982421875,-0.879704475402832,-0.04731559753417969,0.08573532104492188
1744883837140881400,8.02588134765625,-0.6652498245239258,-0.11584091186523438,0.09969928860664368
1744883837157692000,8.04269189453125,-0.3568305969238281,-0.1926419734954834,0.10633859038352966
1744883837174500400,8.059500244140626,-0.062335968017578125,-0.2477893829345703,0.08640030026435852
1744883837191317200,8.076317138671875,0.15236759185791016,-0.276900053024292,0.07924401760101318
1744883837208125400,8.09312548828125,0.2613639831542969,-0.19930601119995117,0.0795554518699646
1744883837224936000,8.10993603515625,0.24859619140625,-0.09861230850219727,0.09969055652618408
1744883837241747500,8.12674755859375,0.15618324279785156,0.012703657150268555,0.0927467942237854
1744883837258565600,8.143565673828125,0.021152496337890625,0.09175395965576172,0.023607105016708374
1744883837275369500,8.160369384765625,-0.11388111114501953,0.15325713157653809,-0.07078924775123596
1744883837292183300,8.177183349609376,-0.182373046875,0.1848440170288086,-0.1599670946598053
1744883837308991500,8.193991455078125,-0.20984268188476562,0.15844273567199707,-0.21307846903800964
1744883837325791700,8.210791748046875,-0.20171165466308594,0.11336040496826172,-0.2368718385696411
1744883837342613200,8.22761328125,-0.17601680755615234,0.07606983184814453,-0.2988453805446625
1744883837359424300,8.24442431640625,-0.12896347045898438,0.026680469512939453,-0.31818655133247375
1744883837376235800,8.26123583984375,-0.0641021728515625,-0.001973390579223633,-0.26242226362228394
1744883837393037300,8.278037353515625,-0.004878044128417969,-0.03580904006958008,-0.1618017852306366
1744883837409857500,8.294857421875,0.06288909912109375,-0.06938600540161133,-0.1259666383266449
1744883837426668000,8.31166796875,0.105499267578125,-0.09282207489013672,-0.11110228300094604
1744883837443469000,8.328468994140625,0.12649250030517578,-0.09118509292602539,-0.09262025356292725
1744883837460290300,8.345290283203125,0.13071918487548828,-0.06314396858215332,-0.060251384973526
1744883837477101800,8.362101806640625,0.11061954498291016,-0.027415752410888672,0.0026048123836517334
1744883837493912000,8.378912109375,0.02552032470703125,0.0009121894836425781,0.031546831130981445
1744883837510723600,8.3957236328125,-0.07141780853271484,0.021328449249267578,0.051712751388549805
1744883837527534000,8.4125341796875,-0.15027236938476562,0.025085926055908203,0.05697140097618103
1744883837544329700,8.429329833984376,-0.17239952087402344,0.03302741050720215,0.06343334913253784
1744883837561159700,8.44615966796875,-0.12465572357177734,0.040109872817993164,0.09078535437583923
1744883837577967900,8.4629677734375,-0.03172492980957031,0.03900766372680664,0.10743051767349243
1744883837594779000,8.47977880859375,0.09559822082519531,0.03771638870239258,0.09941667318344116
1744883837611589000,8.496589111328126,0.21898460388183594,0.04858589172363281,0.09014466404914856
1744883837628400400,8.513400390625,0.3105182647705078,0.048357486724853516,0.09055450558662415
1744883837645212000,8.5302119140625,0.3675098419189453,0.0469508171081543,0.07822498679161072
1744883837662022400,8.5470224609375,0.40561580657958984,0.05306243896484375,0.05868196487426758
1744883837678822700,8.56382275390625,0.42136669158935547,0.06898260116577148,0.026735007762908936
1744883837695644400,8.58064453125,0.4351806640625,0.02935194969177246,0.01402464509010315
1744883837712443000,8.59744287109375,0.43146324157714844,-0.04209542274475098,-0.039614588022232056
1744883837729266400,8.614266357421876,0.3823394775390625,-0.08839821815490723,-0.12671366333961487
1744883837746065200,8.631065185546875,0.23643875122070312,-0.13944530487060547,-0.0812307596206665
1744883837762888400,8.647888427734374,0.019623756408691406,-0.16521859169006348,0.008099853992462158
1744883837779700000,8.664699951171874,-0.2270193099975586,-0.15812420845031738,-0.0059230029582977295
1744883837796510500,8.681510498046874,-0.3885459899902344,-0.18750905990600586,-0.018311500549316406
1744883837813322000,8.698322021484374,-0.39853954315185547,-0.21005606651306152,0.0020088255405426025
1744883837830132500,8.715132568359374,-0.2553091049194336,-0.20539546012878418,-0.0006161630153656006
1744883837846944000,8.731944091796874,-0.007060050964355469,-0.1668243408203125,0.030020058155059814
1744883837863754500,8.74875439453125,0.15460586547851562,-0.11306071281433105,0.059815555810928345
1744883837880566300,8.765566162109375,0.22420501708984375,-0.07288980484008789,0.09860154986381531
1744883837897376800,8.782376708984375,0.1384735107421875,-0.0388181209564209,0.16626644134521484
1744883837914185000,8.79918505859375,-0.0071506500244140625,-0.007291555404663086,0.16576915979385376
1744883837931001900,8.816001953125,-0.09119606018066406,0.031540632247924805,0.11304378509521484
1744883837947810000,8.83281005859375,-0.08199310302734375,0.07174491882324219,0.087940514087677
1744883837964617700,8.84961767578125,0.02921581268310547,0.08646225929260254,0.0803619921207428
1744883837981435100,8.86643505859375,0.13851451873779297,0.013681173324584961,0.042016446590423584
1744883837998242800,8.883242919921875,0.2563447952270508,-0.029423952102661133,0.04114049673080444
1744883838015052000,8.900052001953124,0.15793800354003906,-0.07174372673034668,-0.015010446310043335
1744883838031867000,8.916866943359375,-0.06987380981445312,-0.13807368278503418,0.011609435081481934
1744883838048664000,8.9336640625,-0.3670988082885742,-0.16741704940795898,0.013859480619430542
1744883838065472500,8.950472412109375,-0.5535345077514648,-0.15232539176940918,-0.02319890260696411
1744883838082301400,8.967301513671876,-0.49971866607666016,-0.1133730411529541,-0.07009017467498779
1744883838099109000,8.984109130859375,-0.33173179626464844,-0.0737769603729248,-0.07289758324623108
1744883838115920400,9.00092041015625,-0.1437091827392578,-0.0614924430847168,0.002624034881591797
1744883838132731000,9.01773095703125,-0.1060028076171875,-0.04369497299194336,0.03549069166183472
1744883838149544200,9.034544189453126,-0.1850452423095703,-0.013982057571411133,-0.0008721053600311279
1744883838166351000,9.05135107421875,-0.15234375,0.04352283477783203,0.04246625304222107
1744883838183164700,9.06816455078125,-0.06844139099121094,0.1032097339630127,0.03851503133773804
1744883838199975400,9.084975341796875,0.10468769073486328,0.1326899528503418,0.006259024143218994
1744883838216786400,9.101786376953125,0.33305931091308594,0.13025212287902832,-0.02538132667541504
1744883838233597200,9.11859716796875,0.42223262786865234,0.09411168098449707,-0.0764702558517456
1744883838250408700,9.13540869140625,0.33333778381347656,0.02330160140991211,-0.10755708813667297
1744883838267214800,9.15221484375,0.09414196014404297,-0.04263782501220703,-0.11178591847419739
1744883838284034800,9.169034912109375,-0.13890552520751953,-0.05908536911010742,-0.14176243543624878
1744883838300841200,9.18584130859375,-0.26740455627441406,-0.04139089584350586,-0.15256091952323914
1744883838317653000,9.202653076171876,-0.24903583526611328,-0.030554771423339844,-0.1556413173675537
1744883838334460200,9.219460205078125,-0.15842151641845703,-0.04798388481140137,-0.18821117281913757
1744883838351277800,9.23627783203125,-0.08410930633544922,-0.07833337783813477,-0.14391592144966125
1744883838368082000,9.25308203125,-0.06233024597167969,-0.11112761497497559,-0.0655418336391449
1744883838384897000,9.26989697265625,-0.06241416931152344,-0.09862422943115234,-0.02067914605140686
1744883838401710600,9.286710693359375,-0.10847663879394531,-0.07939457893371582,0.0268537700176239
1744883838418513000,9.303512939453125,-0.20862579345703125,-0.0471646785736084,0.06040117144584656
1744883838435329800,9.320329833984376,-0.3139381408691406,-0.01419687271118164,0.11627154052257538
1744883838452141000,9.33714111328125,-0.4405097961425781,0.0012121200561523438,0.12743258476257324
1744883838468951300,9.353951416015626,-0.481475830078125,0.029077768325805664,0.06948134303092957
1744883838485762800,9.3707626953125,-0.4143180847167969,0.09756016731262207,0.002879321575164795
1744883838502570500,9.387570556640625,-0.21387767791748047,0.15720367431640625,-0.027588069438934326
1744883838519374800,9.404374755859376,0.0214385986328125,0.2014315128326416,-0.060821592807769775
1744883838536195300,9.4211953125,0.2891845703125,0.1995079517364502,-0.06671622395515442
1744883838553007000,9.438007080078124,0.5128059387207031,0.18313264846801758,-0.0757480263710022
1744883838569823700,9.45482373046875,0.5766935348510742,0.18802475929260254,-0.09568187594413757
1744883838586629000,9.471629150390624,0.5817165374755859,0.19517016410827637,-0.08064702153205872
1744883838603435800,9.488435791015625,0.506413459777832,0.18704605102539062,-0.009217798709869385
1744883838620243700,9.50524365234375,0.4231986999511719,0.15288424491882324,0.033236026763916016
1744883838637061400,9.522061279296874,0.35323619842529297,0.10581374168395996,0.03530105948448181
1744883838653873200,9.538873046875,0.2411794662475586,0.031540632247924805,0.012148171663284302
1744883838670684700,9.5556845703125,0.12727069854736328,-0.0277101993560791,0.015309631824493408
1744883838687495000,9.572494873046875,0.01629638671875,-0.07187485694885254,0.06168279051780701
1744883838704302600,9.589302490234376,-0.10831451416015625,-0.09021568298339844,0.09105244278907776
1744883838721120500,9.60612060546875,-0.1674480438232422,-0.13024663925170898,0.08561725914478302
1744883838737927700,9.622927734375,-0.18943119049072266,-0.141951322555542,0.13408049941062927
1744883838754723000,9.63972314453125,-0.24966049194335938,-0.1484978199005127,0.0780668705701828
1744883838771543300,9.656543212890625,-0.25379180908203125,-0.11925148963928223,0.08194607496261597
1744883838788361200,9.673361328125,-0.2556190490722656,-0.07831335067749023,0.12022799253463745
1744883838805181200,9.69018115234375,-0.2632284164428711,-0.031893014907836914,0.08438405394554138
1744883838821983200,9.706983154296875,-0.2371196746826172,-0.009603500366210938,0.002110391855239868
1744883838838782200,9.7237822265625,-0.18680477142333984,-0.01268625259399414,0.033212751150131226
1744883838855608000,9.740608154296876,-0.11366462707519531,0.016099214553833008,0.013820677995681763
1744883838872403000,9.75740283203125,-0.056715965270996094,0.04982495307922363,-0.02831515669822693
1744883838889227500,9.7742275390625,0.013904571533203125,0.08184289932250977,-0.026532679796218872
1744883838906037800,9.791037841796875,0.08380889892578125,0.10189604759216309,-0.014570921659469604
1744883838922849300,9.807849365234375,0.14047527313232422,0.09787845611572266,-0.02135711908340454
1744883838939656200,9.82465625,0.18276691436767578,0.09329414367675781,-0.03446033596992493
1744883838956475000,9.841474853515624,0.1955738067626953,0.07868409156799316,-0.00045117735862731934
1744883838973269000,9.85826904296875,0.1436777114868164,0.05597996711730957,0.04019516706466675
1744883838990093300,9.87509326171875,0.05141639709472656,0.04857683181762695,0.06168690323829651
1744883839006893000,9.89189306640625,-0.014242172241210938,0.02770209312438965,0.04018831253051758
1744883839023715300,9.90871533203125,-0.02349567413330078,0.011969804763793945,0.02715924382209778
1744883839040522500,9.9255224609375,0.01999378204345703,-0.028348445892333984,0.03684881329536438
1744883839057340700,9.942340576171874,0.11277008056640625,-0.05316352844238281,0.024034053087234497
1744883839074162200,9.959162109375,0.1659564971923828,-0.04849362373352051,0.05374300479888916
1744883839090939000,9.97593896484375,0.10410118103027344,-0.052376747131347656,0.09381917119026184
1744883839107758000,9.992758056640625,-0.04339313507080078,-0.038408756256103516,0.07460764050483704
1744883839124578300,10.009578369140625,-0.19378948211669922,-0.014365434646606445,0.06437435746192932
1744883839141394700,10.026394775390624,-0.2521209716796875,0.03298592567443848,0.05188891291618347
1744883839158203600,10.04320361328125,-0.19258499145507812,0.05169415473937988,0.040327221155166626
1744883839175014100,10.06001416015625,-0.051731109619140625,0.06392455101013184,0.04011467099189758
1744883839191825400,10.076825439453126,0.08072471618652344,0.05433535575866699,0.01403045654296875
1744883839208622800,10.093622802734375,0.16395282745361328,0.028443574905395508,-0.008100450038909912
1744883839225447700,10.11044775390625,0.2014007568359375,0.028960704803466797,-0.03345838189125061
1744883839242255000,10.127255126953125,0.182708740234375,0.0402979850769043,-0.0723656415939331
1744883839259072500,10.144072509765625,0.12911415100097656,0.06131792068481445,-0.06396222114562988
1744883839275880200,10.160880126953124,0.06120109558105469,0.059538841247558594,-0.042415499687194824
1744883839292692000,10.17769189453125,-0.008700370788574219,0.06732749938964844,-0.04089966416358948
1744883839309500400,10.19450048828125,-0.051021575927734375,0.08516669273376465,-0.0737820565700531
1744883839326313700,10.211313720703124,-0.04179573059082031,0.08118176460266113,-0.06048768758773804
1744883839343124000,10.2281240234375,-0.014008522033691406,0.05473828315734863,-0.01011192798614502
1744883839359935700,10.244935791015624,-0.0007982254028320312,0.007143735885620117,-0.0010291039943695068
1744883839376745200,10.2617451171875,-0.06879425048828125,-0.029813289642333984,0.002518892288208008
1744883839393558800,10.278558837890625,-0.16118907928466797,-0.041997671127319336,0.01083308458328247
1744883839410368300,10.2953681640625,-0.22066974639892578,-0.030980825424194336,0.009153276681900024
1744883839427179500,10.312179443359375,-0.2314167022705078,-0.01609325408935547,0.01866331696510315
1744883839443977200,10.328977294921875,-0.17089176177978516,-0.0036611557006835938,-0.00649985671043396
1744883839460801800,10.3458017578125,-0.095245361328125,-0.010400533676147461,-0.010892391204833984
1744883839477612000,10.362612060546875,-0.03616142272949219,-0.011011362075805664,0.01128503680229187
1744883839494420500,10.37942041015625,-0.0077915191650390625,-0.0023453235626220703,-0.009266778826713562
1744883839511237600,10.396237548828125,-0.013837814331054688,-0.002085447311401367,-0.010580390691757202
1744883839528045600,10.413045654296875,-0.009703636169433594,0.0292203426361084,0.02763901650905609
1744883839544844300,10.42984423828125,-0.0308380126953125,0.04290366172790527,0.021604418754577637
1744883839561664800,10.446664794921874,-0.06334304809570312,0.04371500015258789,-0.003230661153793335
1744883839578468600,10.463468505859375,-0.03927040100097656,0.05520319938659668,0.028328999876976013
1744883839595289900,10.480289794921875,0.0050411224365234375,0.05652141571044922,0.034930408000946045
1744883839612100400,10.497100341796875,0.04323005676269531,0.05541658401489258,0.04850192368030548
1744883839628898800,10.51389892578125,0.06287479400634766,0.04381155967712402,0.020177006721496582
1744883839645722400,10.530722412109375,0.060230255126953125,0.054563045501708984,-0.006615579128265381
1744883839662534100,10.5475341796875,0.04420661926269531,0.04938149452209473,0.013805702328681946
1744883839679344600,10.5643447265625,0.03833484649658203,0.04791522026062012,0.0073054879903793335
1744883839696156000,10.581156005859375,0.0463104248046875,0.044208526611328125,0.036665692925453186
1744883839712966400,10.59796630859375,-0.02248096466064453,0.0038411617279052734,0.03424733877182007
1744883839729778200,10.614778076171875,-0.09154701232910156,-0.02705073356628418,0.0005224943161010742
1744883839746588700,10.631588623046875,-0.08774948120117188,-0.06201362609863281,-0.006073743104934692
1744883839763400000,10.64839990234375,-0.037563323974609375,-0.08503079414367676,0.014212474226951599
1744883839780208000,10.6652080078125,0.013608932495117188,-0.08385205268859863,-0.015622586011886597
1744883839797022500,10.6820224609375,0.03520011901855469,-0.07341742515563965,-0.05555613338947296
1744883839813832700,10.698832763671875,0.019018173217773438,-0.0742490291595459,-0.02227868139743805
1744883839830644200,10.715644287109376,-0.013312339782714844,-0.054111480712890625,0.016530543565750122
1744883839847441700,10.732441650390625,-0.010528564453125,-0.04033184051513672,0.005624756217002869
1744883839864263000,10.749262939453125,0.0703268051147461,-0.01660776138305664,-0.004800692200660706
1744883839881079800,10.766079833984374,0.17265892028808594,0.006674051284790039,0.0013281852006912231
1744883839897875000,10.782875,0.26632118225097656,0.009766340255737305,0.0000025480985641479492
1744883839914695700,10.79969580078125,0.26289939880371094,-0.010566234588623047,0.007851332426071167
1744883839931513600,10.816513671875,0.13147830963134766,-0.04182076454162598,0.02769419550895691
1744883839948320800,10.83332080078125,-0.05568695068359375,-0.032167673110961914,0.05004725605249405
1744883839965132300,10.85013232421875,-0.24680519104003906,-0.02680182456970215,0.06043317914009094
1744883839981942800,10.86694287109375,-0.35571956634521484,-0.0019342899322509766,0.06283052265644073
1744883839998741200,10.8837412109375,-0.3187589645385742,-0.024148225784301758,0.061466507613658905
1744883840015564800,10.900564697265626,-0.18569183349609375,-0.056459665298461914,0.035131148993968964
1744883840032376000,10.9173759765625,0.003070831298828125,-0.054825544357299805,0.0008859038352966309
1744883840049187000,10.93418701171875,0.17833805084228516,-0.050843000411987305,-0.015528514981269836
1744883840065998600,10.95099853515625,0.29132652282714844,-0.04058265686035156,0.011141210794448853
1744883840082808800,10.967808837890624,0.3214111328125,-0.05217313766479492,0.04713372886180878
1744883840099620400,10.984620361328124,0.24474334716796875,-0.043518781661987305,0.049279794096946716
1744883840116431000,11.00143115234375,0.09004497528076172,-0.023498058319091797,0.040374308824539185
1744883840133242000,11.0182421875,-0.08231163024902344,-0.003922462463378906,0.057155534625053406
1744883840150053000,11.03505322265625,-0.169586181640625,0.01609206199645996,0.07828602194786072
1744883840166864400,11.051864501953125,-0.20582294464111328,0.029052734375,0.0625951737165451
1744883840183675000,11.0686748046875,-0.15508174896240234,0.02158379554748535,0.036005064845085144
1744883840200486700,11.085486572265625,-0.06123542785644531,0.015172004699707031,0.026292935013771057
1744883840217297000,11.102296875,0.012506484985351562,-0.007677555084228516,-0.005612805485725403
1744883840234108400,11.1191083984375,0.0744333267211914,-0.03557777404785156,-0.04996499419212341
1744883840250919000,11.1359189453125,0.11342906951904297,-0.0767209529876709,-0.057983770966529846
1744883840267730700,11.152730712890625,0.1156473159790039,-0.08219718933105469,-0.05648910999298096
1744883840284537600,11.16953759765625,0.07044601440429688,-0.07727193832397461,-0.05803786218166351
1744883840301355500,11.18635546875,-0.03413581848144531,-0.05442404747009277,-0.021380722522735596
1744883840318163200,11.2031630859375,-0.10850334167480469,-0.05497384071350098,0.037910908460617065
1744883840334974500,11.219974365234375,-0.14866256713867188,-0.03600502014160156,0.017985239624977112
1744883840351784700,11.23678466796875,-0.15591144561767578,-0.021543264389038086,0.021775677800178528
1744883840368574000,11.253573974609376,-0.11242008209228516,0.0005133152008056641,0.02442765235900879
1744883840385410300,11.270410400390626,-0.061928749084472656,0.012369632720947266,0.013681188225746155
1744883840402218500,11.287218505859375,-0.009530067443847656,0.010290861129760742,-0.0024614185094833374
1744883840419026000,11.30402587890625,0.035915374755859375,0.015139102935791016,-0.012321233749389648
1744883840435843600,11.320843505859376,0.0705423355102539,0.015583515167236328,0.017579734325408936
1744883840452651000,11.337651123046875,0.11114215850830078,0.018279314041137695,0.04213207960128784
1744883840469465600,11.354465576171876,0.1499013900756836,0.034995317459106445,0.03714302182197571
1744883840486270200,11.371270263671875,0.11384868621826172,0.017119646072387695,0.04832574725151062
1744883840503084800,11.388084716796875,0.04322528839111328,0.002746105194091797,0.06056252121925354
1744883840519894300,11.404894287109375,-0.055777549743652344,-0.0016016960144042969,0.06996691226959229
1744883840536707800,11.421707763671876,-0.11687946319580078,0.008362054824829102,0.04342201352119446
1744883840553517000,11.43851708984375,-0.1452016830444336,0.01497030258178711,0.04222413897514343
1744883840570326000,11.455325927734375,-0.098297119140625,-0.004420042037963867,0.028519034385681152
1744883840587141600,11.4721416015625,-0.02460193634033203,-0.02013564109802246,-0.011002689599990845
1744883840603939800,11.48893994140625,0.08654308319091797,-0.034485816955566406,-0.016674309968948364
1744883840620759300,11.50575927734375,0.18768024444580078,-0.029892921447753906,-0.001612544059753418
1744883840637572600,11.522572509765626,0.2345590591430664,-0.03463149070739746,-0.005415767431259155
1744883840654377700,11.539377685546874,0.21792030334472656,-0.0483243465423584,0.021357089281082153
1744883840671200300,11.5562001953125,0.14152240753173828,-0.037317752838134766,0.017576366662979126
1744883840688005000,11.573005126953126,0.04080009460449219,-0.013646602630615234,0.018627256155014038
1744883840704813800,11.589813720703125,-0.055289268493652344,0.0015721321105957031,0.047417670488357544
1744883840721630200,11.606630126953124,-0.1519947052001953,-0.000476837158203125,0.03570544719696045
1744883840738417700,11.623417724609375,-0.23897647857666016,-0.011179208755493164,0.0015286803245544434
1744883840755263000,11.640262939453125,-0.29028987884521484,-0.03748321533203125,0.004850596189498901
1744883840772047600,11.657047607421875,-0.309600830078125,-0.046404361724853516,-0.011589229106903076
1744883840788859400,11.673859375,-0.2361745834350586,-0.02752232551574707,-0.018847256898880005
1744883840805679600,11.6906796875,-0.09916114807128906,-0.025864839553833008,0.01845654845237732
1744883840822496500,11.70749658203125,0.06366157531738281,-0.04372286796569824,0.047928810119628906
1744883840839305000,11.724304931640624,0.19887638092041016,-0.056845903396606445,0.02275589108467102
1744883840856115200,11.741115234375,0.26571083068847656,-0.05335426330566406,-0.024240642786026
1744883840872914000,11.757913818359375,0.2530088424682617,-0.026120662689208984,-0.008288413286209106
1744883840889737500,11.774737548828124,0.18375873565673828,-0.0046384334564208984,0.054908543825149536
1744883840906549000,11.791549072265624,0.08331680297851562,0.035892486572265625,0.06612282991409302
1744883840923360500,11.808360595703125,0.03394889831542969,0.05902814865112305,0.058434247970581055
1744883840940167200,11.825167236328125,0.0051422119140625,0.05735516548156738,0.05004703998565674
1744883840956984000,11.841984130859375,-0.020816802978515625,0.06914424896240234,0.0407291054725647
1744883840973789000,11.858788818359375,-0.031917572021484375,0.043631553649902344,0.005739361047744751
1744883840990603500,11.875603515625,-0.06975746154785156,0.018174171447753906,0.010486692190170288
1744883841007415000,11.8924150390625,-0.13724327087402344,-0.008353233337402344,-0.012677967548370361
1744883841024219100,11.90921923828125,-0.19371891021728516,-0.03239035606384277,-0.036119818687438965
1744883841041037000,11.926037109375,-0.1894845962524414,-0.023955583572387695,-0.004849940538406372
1744883841057850600,11.9428505859375,-0.10233020782470703,-0.031945228576660156,-0.0030191242694854736
1744883841074666200,11.959666259765624,0.03293895721435547,-0.02412271499633789,-0.02496802806854248
1744883841091459600,11.97645947265625,0.158843994140625,-0.022343873977661133,-0.045930951833724976
1744883841108277000,11.993277099609376,0.22889995574951172,-0.02579665184020996,-0.0452217161655426
1744883841125091600,12.010091552734375,0.1923847198486328,-0.0008962154388427734,-0.049733757972717285
1744883841141902600,12.026902587890625,0.1042928695678711,0.03315448760986328,-0.0330427885055542
1744883841158701600,12.04370166015625,-0.0038232803344726562,0.05347084999084473,-0.029399961233139038
1744883841175512300,12.06051220703125,-0.0697011947631836,0.0660712718963623,-0.015656262636184692
1744883841192335400,12.07733544921875,-0.11345386505126953,0.04474282264709473,0.005549311637878418
1744883841209134800,12.094134765625,-0.1537647247314453,0.038071632385253906,0.018126964569091797
1744883841225957400,12.110957275390625,-0.16015052795410156,0.02337193489074707,0.014263510704040527
1744883841242769200,12.12776904296875,-0.113677978515625,0.020928382873535156,0.0016710460186004639
1744883841259578400,12.144578369140625,-0.05225372314453125,0.006781101226806641,0.002952486276626587
1744883841276391200,12.16139111328125,0.08514213562011719,-0.014209985733032227,-0.005086123943328857
1744883841293201400,12.178201416015625,0.26107215881347656,-0.02318716049194336,-0.010717153549194336
1744883841310015000,12.195014892578126,0.3993682861328125,-0.014936208724975586,-0.0011544525623321533
1744883841326823700,12.21182373046875,0.40462589263916016,-0.007344484329223633,0.009931981563568115
1744883841343635200,12.22863525390625,0.23001575469970703,-0.004201650619506836,0.033460646867752075
1744883841360445700,12.24544580078125,-0.09404659271240234,0.01860952377319336,0.1308438777923584
1744883841377257200,12.26225732421875,-0.39040660858154297,0.06416845321655273,0.2703830897808075
1744883841394067700,12.279067626953125,-0.5506629943847656,0.12676692008972168,0.35740333795547485
1744883841410879200,12.295879150390626,-0.5347909927368164,0.17784500122070312,0.3339609205722809
1744883841427678700,12.3126787109375,-0.36843395233154297,0.14943790435791016,0.26127782464027405
1744883841444498000,12.329497802734375,-0.14484596252441406,0.10384440422058105,0.09662428498268127
1744883841461314800,12.346314697265624,0.042550086975097656,0.05215740203857422,-0.11686104536056519
1744883841478123300,12.363123291015626,0.17365169525146484,0.022251605987548828,-0.3103940486907959
1744883841494933800,12.379933837890626,0.24092674255371094,0.05405688285827637,-0.420622318983078
1744883841511745300,12.396745361328126,0.3011808395385742,0.06268525123596191,-0.47924870252609253
1744883841528565000,12.41356494140625,0.3731689453125,0.06070137023925781,-0.44566452503204346
1744883841545358000,12.430358154296876,0.41776466369628906,0.0748753547668457,-0.36364465951919556
1744883841562177500,12.447177490234376,0.4347038269042969,0.03144383430480957,-0.2492130994796753
1744883841578989300,12.4639892578125,0.3574542999267578,0.015190839767456055,-0.1341458559036255
1744883841595799600,12.480799560546876,0.19996166229248047,0.008464813232421875,-0.07493096590042114
1744883841612611300,12.497611328125,0.018395423889160156,-0.01958179473876953,-0.004534691572189331
1744883841629421800,12.514421875,-0.17574596405029297,-0.05550217628479004,0.027048349380493164
1744883841646236200,12.531236083984375,-0.30606842041015625,-0.11013627052307129,0.05214366316795349
1744883841663043800,12.5480439453125,-0.31857776641845703,-0.15735960006713867,0.04200422763824463
1744883841679855400,12.56485546875,-0.23575973510742188,-0.19882583618164062,0.043290525674819946
1744883841696662500,12.58166259765625,-0.11817169189453125,-0.20404362678527832,0.0642540454864502
1744883841713480700,12.598480712890625,-0.020674705505371094,-0.20415163040161133,0.07483744621276855
1744883841730287900,12.615287841796874,0.009409904479980469,-0.1972196102142334,0.11145177483558655
1744883841747102700,12.632102783203125,-0.04768657684326172,-0.15253448486328125,0.12406688928604126
1744883841763906600,12.648906494140626,-0.11134910583496094,-0.09461021423339844,0.12124797701835632
1744883841780721700,12.6657216796875,-0.12344646453857422,-0.026726484298706055,0.16373124718666077
1744883841797531600,12.68253173828125,-0.09701251983642578,0.00425410270690918,0.19462907314300537
1744883841814340400,12.69934033203125,-0.020363807678222656,0.0012044906616210938,0.12172803282737732
1744883841831157000,12.716156982421875,0.06485843658447266,-0.00809335708618164,0.051622867584228516
1744883841847965400,12.73296533203125,0.12085342407226562,-0.027606964111328125,-0.004339158535003662
1744883841864776000,12.74977587890625,0.10723686218261719,-0.03135085105895996,-0.033608824014663696
1744883841881587500,12.76658740234375,0.072265625,-0.01100015640258789,-0.0533083975315094
1744883841898398000,12.78339794921875,0.005217552185058594,0.026763916015625,-0.12085449695587158
1744883841915209500,12.80020947265625,-0.11251354217529297,0.018146276473999023,-0.10553765296936035
1744883841932020200,12.817020263671875,-0.2479238510131836,0.05312037467956543,-0.019206762313842773
1744883841948815000,12.833815185546875,-0.39726924896240234,0.05588793754577637,0.07559655606746674
1744883841965645800,12.850645751953126,-0.4883241653442383,0.020895004272460938,0.15326425433158875
1744883841982453500,12.86745361328125,-0.578094482421875,-0.012815237045288086,0.16322378814220428
1744883841999264000,12.884263916015625,-0.6771984100341797,0.03532743453979492,0.058634936809539795
1744883842016075800,12.90107568359375,-0.7125120162963867,0.08853554725646973,0.00436776876449585
1744883842032886000,12.917885986328125,-0.6540689468383789,0.09334874153137207,0.07506215572357178
1744883842049697500,12.934697509765625,-0.426361083984375,0.15715670585632324,0.05375763773918152
1744883842066508000,12.951508056640625,-0.0864095687866211,0.17838239669799805,-0.03822726011276245
1744883842083319600,12.968319580078125,0.25348567962646484,0.14737510681152344,-0.01952943205833435
1744883842100130000,12.985130126953125,0.4464693069458008,0.14812302589416504,-0.004773646593093872
1744883842116941600,13.001941650390625,0.5440101623535156,0.08440041542053223,-0.00958317518234253
1744883842133752000,13.018751953125,0.7563982009887695,0.0199434757232666,-0.07679268717765808
1744883842150563600,13.0355634765625,0.9204034805297852,-0.011580228805541992,-0.24516558647155762
1744883842167374000,13.0523740234375,0.8889751434326172,-0.05395030975341797,-0.2338351607322693
1744883842184185600,13.069185546875,0.6416635513305664,-0.076202392578125,-0.1964021623134613
1744883842201002200,13.086002197265625,0.3332662582397461,-0.12105202674865723,-0.2784200608730316
1744883842217807600,13.1028076171875,0.10054588317871094,-0.15121173858642578,-0.2629965841770172
1744883842234614800,13.11961474609375,-0.0982828140258789,-0.26555871963500977,-0.1082155704498291
1744883842251422000,13.136421875,-0.25067710876464844,-0.27743053436279297,0.06421329081058502
1744883842268240100,13.153240234375,-0.38259315490722656,-0.30054402351379395,0.2457120716571808
1744883842285052000,13.170052001953126,-0.5234146118164062,-0.26833319664001465,0.4078247547149658
1744883842301862700,13.186862548828126,-0.6448297500610352,-0.20543956756591797,0.49150699377059937
1744883842318660600,13.20366064453125,-0.5746698379516602,-0.10281205177307129,0.4947526156902313
1744883842335484700,13.220484619140626,-0.4715404510498047,0.030348777770996094,0.45221561193466187
1744883842352295700,13.237295654296876,-0.4166860580444336,0.1429436206817627,0.16868719458580017
1744883842369105700,13.254105712890626,-0.2361917495727539,0.21382498741149902,0.05761954188346863
1744883842385918200,13.270918212890624,0.05313682556152344,0.24637722969055176,-0.049003034830093384
1744883842402728200,13.287728271484376,0.2543153762817383,0.25597715377807617,-0.1534966230392456
1744883842419539700,13.304539794921874,0.46219635009765625,0.2641019821166992,-0.2828429937362671
1744883842436350200,13.32135009765625,0.550969123840332,0.250011682510376,-0.295417457818985
1744883842453161500,13.338161376953124,0.5297908782958984,0.18629217147827148,-0.2399267554283142
1744883842469969000,13.354968994140625,0.3868827819824219,0.14040684700012207,-0.19525527954101562
1744883842486798600,13.371798583984376,0.17194366455078125,0.08754348754882812,-0.17401644587516785
1744883842503594200,13.38859423828125,0.05467510223388672,0.03365349769592285,-0.12791404128074646
1744883842520405800,13.40540576171875,0.001861572265625,-0.014200448989868164,-0.051777005195617676
1744883842537216000,13.422216064453124,0.036202430725097656,-0.07736063003540039,-0.04537805914878845
1744883842554027500,13.439027587890624,0.02176380157470703,-0.11402201652526855,-0.06742393970489502
1744883842570838300,13.45583837890625,0.08930492401123047,-0.17011380195617676,-0.07960382103919983
1744883842587652600,13.472652587890625,0.1243743896484375,-0.19528460502624512,-0.08254912495613098
1744883842604454000,13.489453857421875,0.15576171875,-0.19380474090576172,-0.08281174302101135
1744883842621275100,13.506275146484375,0.08771610260009766,-0.18293523788452148,-0.07936790585517883
1744883842638082000,13.52308203125,-0.029186248779296875,-0.13188838958740234,-0.057200223207473755
1744883842654893600,13.5398935546875,-0.18550872802734375,-0.0937960147857666,0.004403293132781982
1744883842671704000,13.5567041015625,-0.2860279083251953,-0.06475687026977539,0.049343615770339966
1744883842688512300,13.57351220703125,-0.2797117233276367,-0.023077964782714844,0.0770723819732666
1744883842705323000,13.590322998046876,-0.18666362762451172,0.021331787109375,0.08032786846160889
1744883842722141000,13.607140869140625,-0.020175933837890625,0.05671429634094238,0.04014784097671509
1744883842738955500,13.62395556640625,0.08825969696044922,0.07113218307495117,0.03958377242088318
1744883842755752000,13.640751953125,0.25696372985839844,0.07407402992248535,0.0381016731262207
1744883842772557800,13.657557861328126,0.31682586669921875,0.06979537010192871,0.027821272611618042
1744883842789382400,13.67438232421875,0.3479337692260742,0.06073808670043945,0.007150769233703613
1744883842806192000,13.691192138671875,0.3277559280395508,0.04300427436828613,0.022187471389770508
1744883842823000800,13.708000732421874,0.2388019561767578,0.016585826873779297,0.03987312316894531
1744883842839817000,13.72481689453125,0.1016073226928711,-0.0026557445526123047,0.05587714910507202
1744883842856625700,13.741625732421875,-0.03718376159667969,-0.031070947647094727,0.062191933393478394
1744883842873432800,13.758432861328124,-0.16371440887451172,-0.06174302101135254,0.07994049787521362
1744883842890251000,13.7752509765625,-0.22765731811523438,-0.06519746780395508,0.07881452143192291
1744883842907055400,13.792055419921875,-0.21738243103027344,-0.05792427062988281,0.05393481254577637
1744883842923871500,13.80887158203125,-0.13025379180908203,-0.06414294242858887,0.0828607976436615
1744883842940681500,13.825681396484375,-0.030134201049804688,-0.0883026123046875,0.0833604484796524
1744883842957491700,13.84249169921875,0.019049644470214844,-0.08800697326660156,0.013269662857055664
1744883842974289200,13.8592890625,0.018571853637695312,-0.052056074142456055,-0.011929541826248169
1744883842991116500,13.876116455078124,-0.0029697418212890625,-0.012851715087890625,0.019801050424575806
1744883843007924500,13.892924560546875,0.011770248413085938,-0.0019521713256835938,0.03259369730949402
1744883843024736000,13.909736083984376,0.024181365966796875,0.019011974334716797,0.038804441690444946
1744883843041543700,13.926543701171875,0.0228271484375,0.012340784072875977,0.04797005653381348
1744883843058360000,13.943360107421874,-0.005629539489746094,-0.005145072937011719,0.00709611177444458
1744883843075168300,13.960168212890625,-0.061855316162109375,-0.028000354766845703,-0.022642016410827637
1744883843091979800,13.976979736328126,-0.10371971130371094,-0.040050506591796875,-0.029589414596557617
1744883843108780500,13.993780517578125,-0.12867259979248047,-0.036986351013183594,0.003347456455230713
1744883843125599500,14.010599609375,-0.12383270263671875,-0.03659462928771973,0.015660881996154785
1744883843142414800,14.027414794921874,-0.09235000610351562,-0.03809666633605957,0.013038873672485352
1744883843159221500,14.044221435546875,-0.057152748107910156,-0.0448460578918457,0.003869473934173584
1744883843176034600,14.06103466796875,-0.010068893432617188,-0.04464077949523926,-0.009215444326400757
1744883843192845800,14.077845703125,-0.0014553070068359375,-0.04340553283691406,0.01849779486656189
1744883843209640400,14.094640380859374,-0.032868385314941406,-0.038036346435546875,0.02498680353164673
1744883843226468400,14.11146826171875,-0.04829597473144531,-0.005641937255859375,0.015397101640701294
1744883843243278300,14.1282783203125,-0.029420852661132812,0.020241975784301758,0.02010372281074524
1744883843260089900,14.14508984375,0.021819114685058594,0.036995649337768555,0.022947579622268677
1744883843276900400,14.161900390625,0.0621490478515625,0.0432584285736084,0.00554928183555603
1744883843293712000,14.1787119140625,0.0933380126953125,0.04991912841796875,-0.020143598318099976
1744883843310509600,14.195509521484375,0.1128702163696289,0.059194087982177734,-0.034657835960388184
1744883843327334000,14.212333984375,0.11785030364990234,0.06507396697998047,-0.0641297698020935
1744883843344143400,14.229143310546876,0.10469341278076172,0.05340719223022461,-0.06680092215538025
1744883843360957400,14.24595751953125,0.06083106994628906,0.028715848922729492,-0.05040296912193298
1744883843377766400,14.262766357421874,-0.0042819976806640625,0.0011124610900878906,-0.043870508670806885
1744883843394574800,14.279574951171876,-0.0808868408203125,-0.03969740867614746,-0.03965127468109131
1744883843411392800,14.296392822265625,-0.12973308563232422,-0.0818943977355957,-0.0453362762928009
1744883843428203300,14.313203369140625,-0.10536479949951172,-0.10359382629394531,-0.06537041068077087
1744883843444995600,14.32999560546875,-0.007395744323730469,-0.13555097579956055,-0.07396841049194336
1744883843461824800,14.34682470703125,0.046418190002441406,-0.1284189224243164,-0.025883018970489502
1744883843478619600,14.36361962890625,0.018613815307617188,-0.11052513122558594,-0.05404117703437805
1744883843495444000,14.38044384765625,0.013556480407714844,-0.05824851989746094,-0.03704705834388733
1744883843512254500,14.39725439453125,0.04639148712158203,-0.007305622100830078,0.029122620820999146
1744883843529052700,14.414052734375,0.21863460540771484,0.07570362091064453,-0.0007662177085876465
1744883843545856000,14.43085595703125,0.5166149139404297,0.1364145278930664,-0.05195990204811096
1744883843562688300,14.447688232421875,0.8332881927490234,0.12317419052124023,-0.02449214458465576
1744883843579498500,14.46449853515625,0.8916711807250977,0.06398200988769531,-0.0998222827911377
1744883843596310000,14.48131005859375,1.021489143371582,-0.01830315589904785,-0.06178101897239685
1744883843613120500,14.49812060546875,0.8328580856323242,-0.13498902320861816,-0.07352116703987122
1744883843629913300,14.514913330078125,0.5234060287475586,-0.23785972595214844,-0.06715667247772217
1744883843646749000,14.5317490234375,0.02490520477294922,-0.2994053363800049,-0.02141144871711731
1744883843663554000,14.548553955078125,-0.4244508743286133,-0.34250831604003906,0.006737768650054932
1744883843680364300,14.5653642578125,-0.6453113555908203,-0.3472130298614502,0.010309040546417236
1744883843697176000,14.582176025390625,-0.6399774551391602,-0.30497145652770996,0.054692596197128296
1744883843713986600,14.598986572265625,-0.5682592391967773,-0.2484874725341797,0.07721751928329468
1744883843730797800,14.6157978515625,-0.48491954803466797,-0.16837334632873535,0.14218002557754517
1744883843747608300,14.6326083984375,-0.3822898864746094,-0.05306243896484375,0.24346157908439636
1744883843764416800,14.649416748046875,-0.2091350555419922,0.06717658042907715,0.2605079412460327
1744883843781233700,14.666233642578124,0.009814262390136719,0.15282464027404785,0.2173844873905182
1744883843798042400,14.68304248046875,0.19925880432128906,0.23956680297851562,0.13020086288452148
1744883843814852400,14.699852294921875,0.22445964813232422,0.20653891563415527,0.05768805742263794
1744883843831663900,14.716663818359375,0.14063167572021484,0.22127199172973633,0.03640356659889221
1744883843848461800,14.7334619140625,-0.006644248962402344,0.22501516342163086,0.038223087787628174
1744883843865286000,14.750285888671876,-0.12113094329833984,0.2238166332244873,-0.0043756067752838135
1744883843882096400,14.767096435546875,-0.1609020233154297,0.23048949241638184,-0.052900880575180054
1744883843898895000,14.78389501953125,-0.1166534423828125,0.1741774082183838,-0.08435475826263428
1744883843915718400,14.800718505859376,-0.019084930419921875,0.10106897354125977,-0.10743772983551025
1744883843932530000,14.817530029296876,0.08431053161621094,0.08593511581420898,-0.1357155740261078
1744883843949340700,14.834340576171876,0.17109012603759766,0.10803079605102539,-0.15611112117767334
1744883843966152000,14.85115185546875,0.2695798873901367,0.13654255867004395,-0.10513114929199219
1744883843982962400,14.86796240234375,0.3569669723510742,0.16069388389587402,-0.013381719589233398
1744883843999774000,14.88477392578125,0.40421390533447266,0.1471538543701172,0.03381389379501343
1744883844016584400,14.90158447265625,0.41547393798828125,0.13340020179748535,0.03736746311187744
1744883844033396000,14.91839599609375,0.3787660598754883,0.12943720817565918,0.04238978028297424
1744883844050208000,14.9352080078125,0.29989147186279297,0.10885739326477051,0.08588773012161255
1744883844067016400,14.952016357421876,0.2111520767211914,0.0875244140625,0.093804270029068
1744883844083828500,14.968828369140626,0.1099233627319336,0.05492997169494629,0.0997249186038971
1744883844100639000,14.985638916015626,0.032744407653808594,0.026988983154296875,0.09846833348274231
1744883844117451500,15.002451416015624,0.014197349548339844,0.002276182174682617,0.07314440608024597
1744883844134259000,15.019259033203125,0.03227710723876953,-0.015102863311767578,0.048455655574798584
1744883844151078100,15.036078125,0.10484504699707031,-0.0048139095306396484,0.02066349983215332
1744883844167881500,15.052881591796876,0.2310171127319336,0.022265195846557617,0.01406523585319519
1744883844184691500,15.06969140625,0.3515167236328125,0.07723164558410645,-0.020388424396514893
1744883844201509000,15.086509033203125,0.4450559616088867,0.12834715843200684,-0.06440478563308716
1744883844218316500,15.103316650390624,0.49509716033935547,0.16736912727355957,-0.0633423924446106
1744883844235128000,15.120128173828125,0.5738716125488281,0.18514442443847656,-0.07718735933303833
1744883844251938300,15.136938232421874,0.6621026992797852,0.21160674095153809,-0.09253618121147156
1744883844268737800,15.15373779296875,0.747746467590332,0.20050883293151855,-0.047708600759506226
1744883844285561000,15.17056103515625,0.7574634552001953,0.18403983116149902,-0.0461219847202301
1744883844302371800,15.187371826171875,0.6852645874023438,0.16183137893676758,-0.0461806058883667
1744883844319182600,15.2041826171875,0.5372037887573242,0.12828516960144043,-0.004871010780334473
1744883844335992600,15.22099267578125,0.34898853302001953,0.10917305946350098,-0.011857658624649048
1744883844352806100,15.23780615234375,0.2045307159423828,0.10772252082824707,0.0012671351432800293
1744883844369616400,15.254616455078125,0.15237045288085938,0.07717299461364746,0.032783687114715576
1744883844386426600,15.271426513671875,0.1969137191772461,0.07065463066101074,0.024047672748565674
1744883844403238100,15.288238037109375,0.3316822052001953,0.07111573219299316,0.03883659839630127
1744883844420049000,15.305048828125,0.46141910552978516,0.07270622253417969,0.006870746612548828
1744883844436860200,15.321860107421875,0.5276527404785156,0.08548140525817871,-0.0222281813621521
1744883844453671000,15.3386708984375,0.5669384002685547,0.08015632629394531,-0.02259787917137146
1744883844470479000,15.35547900390625,0.5561561584472656,0.1043398380279541,-0.0313391387462616
1744883844487295700,15.372295654296876,0.5430288314819336,0.15322637557983398,-0.008149027824401855
1744883844504104200,15.389104248046875,0.533233642578125,0.18619847297668457,-0.0026215016841888428
1744883844520914700,15.405914794921875,0.5186052322387695,0.20458173751831055,0.005425930023193359
1744883844537726200,15.422726318359375,0.5283527374267578,0.19295763969421387,0.00263899564743042
1744883844554533600,15.43953369140625,0.5625143051147461,0.18359947204589844,-0.0425758957862854
1744883844571348200,15.45634814453125,0.5668315887451172,0.16768884658813477,-0.04223436117172241
1744883844588161800,15.473161865234376,0.5209455490112305,0.13425064086914062,-0.023413926362991333
1744883844604970200,15.48997021484375,0.4556760787963867,0.10971379280090332,-0.030727416276931763
1744883844621780700,15.50678076171875,0.3716402053833008,0.09420990943908691,-0.03580930829048157
1744883844638588200,15.523588134765625,0.29241275787353516,0.06554627418518066,-0.009330034255981445
1744883844655402800,15.54040283203125,0.2368640899658203,0.06119823455810547,-0.007368326187133789
1744883844672214300,15.55721435546875,0.21020030975341797,0.06899166107177734,-0.03156563639640808
1744883844689024800,15.574024658203125,0.20357608795166016,0.05244278907775879,-0.037033796310424805
1744883844705825000,15.590824951171875,0.19699859619140625,0.06411623954772949,-0.014879286289215088
1744883844722649900,15.60764990234375,0.21704387664794922,0.07521176338195801,-0.04243001341819763
1744883844739458300,15.624458251953126,0.3194894790649414,0.0878911018371582,-0.04832512140274048
1744883844756255700,15.641255859375,0.46921825408935547,0.09261298179626465,-0.02659592032432556
1744883844773080800,15.658080810546876,0.6164693832397461,0.09683918952941895,-0.028418779373168945
1744883844789890800,15.674890869140626,0.7042407989501953,0.08617281913757324,-0.01457241177558899
1744883844806689800,15.691689697265625,0.7341022491455078,0.07672643661499023,-0.028550654649734497
1744883844823512600,15.7085126953125,0.7048368453979492,0.10389375686645508,-0.032099395990371704
1744883844840324400,15.725324462890624,0.6113767623901367,0.12087345123291016,-0.02175465226173401
1744883844857122000,15.7421220703125,0.5207834243774414,0.1446232795715332,0.010276615619659424
1744883844873943300,15.758943359375,0.43406105041503906,0.14700555801391602,0.04248720407485962
1744883844890756900,15.7757568359375,0.38802146911621094,0.13231468200683594,0.0418679416179657
1744883844907565800,15.79256591796875,0.36380672454833984,0.12827110290527344,0.04471224546432495
1744883844924376600,15.80937646484375,0.35723018646240234,0.12300658226013184,0.05631989240646362
1744883844941194800,15.82619482421875,0.35806846618652344,0.11559104919433594,0.027340739965438843
1744883844958000600,15.843000732421874,0.3732881546020508,0.10463619232177734,0.004876762628555298
1744883844974800600,15.859800537109376,0.3876333236694336,0.09321761131286621,-0.021603405475616455
1744883844991609600,15.876609619140625,0.4237174987792969,0.09609079360961914,-0.013454318046569824
1744883845008416800,15.893416748046874,0.43313121795654297,0.08356261253356934,0.015123337507247925
1744883845025242600,15.91024267578125,0.4365520477294922,0.07528209686279297,0.0177309513092041
1744883845042053600,15.9270537109375,0.46205997467041016,0.09705185890197754,0.0039556026458740234
1744883845058860000,15.943860107421875,0.5128660202026367,0.11169075965881348,0.01412898302078247
1744883845075678200,15.96067822265625,0.5816946029663086,0.14528918266296387,0.02922719717025757
1744883845092488400,15.977488525390624,0.6677007675170898,0.18566417694091797,0.01827603578567505
1744883845109300500,15.994300537109375,0.7349443435668945,0.2019641399383545,-0.002520829439163208
1744883845126110700,16.01111083984375,0.7558965682983398,0.17673420906066895,-0.013996362686157227
1744883845142905300,16.0279052734375,0.6947784423828125,0.14372730255126953,-0.01970463991165161
1744883845159738000,16.044738037109376,0.5498628616333008,0.09483695030212402,-0.025449246168136597
1744883845176544300,16.061544189453127,0.39412975311279297,0.06249547004699707,-0.02008262276649475
1744883845193341700,16.078341796875,0.26567840576171875,0.04518723487854004,-0.0025573372840881348
1744883845210159900,16.095159912109374,0.2372150421142578,0.026819229125976562,-0.009545862674713135
1744883845226976800,16.111976806640627,0.29562854766845703,-0.005712270736694336,-0.008973002433776855
1744883845243788300,16.128788330078127,0.3921632766723633,-0.023638248443603516,0.011360317468643188
1744883845260598800,16.145598876953127,0.458740234375,-0.00558924674987793,0.008807182312011719
1744883845277410300,16.162410400390623,0.4714517593383789,0.01385498046875,0.013988584280014038
1744883845294218500,16.179218505859374,0.4245176315307617,0.05268526077270508,0.05116191506385803
1744883845311021600,16.196021484375,0.3315258026123047,0.0887594223022461,0.061095625162124634
1744883845327839500,16.212839599609374,0.27391624450683594,0.15315508842468262,0.04336118698120117
1744883845344654300,16.229654296875,0.31548500061035156,0.2047262191772461,0.030762076377868652
1744883845361468400,16.246468505859376,0.43575191497802734,0.23043465614318848,0.020001590251922607
1744883845378289700,16.26328955078125,0.5698671340942383,0.23767828941345215,-0.04758235812187195
1744883845395086000,16.280086181640623,0.6828832626342773,0.21901631355285645,-0.055058300495147705
1744883845411898400,16.2968984375,0.6910076141357422,0.20482659339904785,-0.04979395866394043
1744883845428692700,16.313692626953124,0.6061677932739258,0.2055809497833252,-0.03818720579147339
1744883845445523500,16.3305234375,0.5225839614868164,0.14215683937072754,-0.027985304594039917
1744883845462331000,16.347330810546875,0.44995594024658203,0.11347603797912598,-0.017565131187438965
1744883845479142400,16.364142333984375,0.3680295944213867,0.12875699996948242,-0.033930808305740356
1744883845495953000,16.380952880859375,0.29483509063720703,0.13486194610595703,-0.08273047208786011
1744883845512764400,16.397764404296876,0.25135040283203125,0.12898898124694824,-0.08103209733963013
1744883845529574700,16.41457470703125,0.23764705657958984,0.12808012962341309,-0.013468027114868164
1744883845546386400,16.431386474609376,0.2804746627807617,0.11489748954772949,-0.011376500129699707
1744883845563197200,16.448197265625,0.3396892547607422,0.12836003303527832,-0.05320295691490173
1744883845580008400,16.465008544921876,0.4526519775390625,0.13242840766906738,-0.05376112461090088
1744883845596819000,16.48181884765625,0.5376424789428711,0.11001896858215332,-0.04168161749839783
1744883845613627100,16.498627197265623,0.5474433898925781,0.11277461051940918,-0.02728453278541565
1744883845630444000,16.515444091796876,0.47394752502441406,0.10924482345581055,-0.009900808334350586
1744883845647241500,16.532241455078125,0.34975624084472656,0.10558962821960449,0.0034239590167999268
1744883845664060700,16.549060791015624,0.21502399444580078,0.11480283737182617,0.04650163650512695
1744883845680877000,16.565876953125,0.08962440490722656,0.10401511192321777,0.08708316087722778
1744883845697684700,16.582684814453124,0.01894664764404297,0.0846855640411377,0.06022903323173523
1744883845714493700,16.59949365234375,0.02194499969482422,0.041448116302490234,0.03377223014831543
1744883845731309600,16.6163095703125,0.010700225830078125,-0.0031511783599853516,0.036330610513687134
1744883845748093000,16.633093017578126,-0.06743240356445312,-0.02862381935119629,0.02745315432548523
1744883845764933600,16.64993359375,-0.2011709213256836,-0.0444183349609375,0.04984971880912781
1744883845781740500,16.666740478515624,-0.3331317901611328,-0.036150217056274414,0.06325832009315491
1744883845798565000,16.683565185546875,-0.37288665771484375,0.017612457275390625,0.08336928486824036
1744883845815362600,16.700362548828124,-0.2924327850341797,0.10504794120788574,0.06840431690216064
1744883845832172800,16.7171728515625,-0.05263328552246094,0.19851994514465332,0.03529691696166992
1744883845848985300,16.7339853515625,0.17941570281982422,0.2837808132171631,0.013284415006637573
1744883845865795000,16.750795166015624,0.3565216064453125,0.35066676139831543,0.07079699635505676
1744883845882606600,16.767606689453125,0.45934391021728516,0.41965365409851074,0.10655820369720459
1744883845899417000,16.7844169921875,0.5025272369384766,0.49082517623901367,0.08865559101104736
1744883845916228600,16.801228515625,0.5389328002929688,0.5319600105285645,0.06213840842247009
1744883845933027000,16.818027099609374,0.6709680557250977,0.46744656562805176,0.01682758331298828
1744883845949850400,16.834850341796876,0.8145627975463867,0.38991546630859375,-0.0988621711730957
1744883845966661000,16.8516611328125,0.9411869049072266,0.26572608947753906,-0.16769453883171082
1744883845983472400,16.868472412109377,0.9646482467651367,0.1262800693511963,-0.1981673240661621
1744883846000283100,16.885283203125,0.7983198165893555,0.020899295806884766,-0.21413329243659973
1744883846017094400,16.902094482421877,0.5346698760986328,-0.08002376556396484,-0.21134966611862183
1744883846033896200,16.918896240234375,0.21755313873291016,-0.13762331008911133,-0.16210982203483582
1744883846050716400,16.93571630859375,0.0012426376342773438,-0.18119359016418457,-0.09137320518493652
1744883846067527000,16.95252685546875,-0.06385040283203125,-0.21325254440307617,-0.03601109981536865
1744883846084329700,16.969329833984375,-0.01911640167236328,-0.2329573631286621,-0.03182604908943176
1744883846101152300,16.98615234375,0.11855316162109375,-0.2353990077972412,-0.04312974214553833
1744883846117960700,17.002960693359373,0.1571063995361328,-0.22429847717285156,-0.012414306402206421
1744883846134773000,17.01977294921875,0.12325572967529297,-0.19995975494384766,0.046360790729522705
1744883846151580200,17.036580078125,0.020963668823242188,-0.1314702033996582,0.09869614243507385
1744883846168393200,17.053393310546873,-0.09410381317138672,-0.06203174591064453,0.097697913646698
1744883846185204500,17.07020458984375,-0.17508411407470703,0.03570079803466797,0.10705122351646423
1744883846202015200,17.08701513671875,-0.20470809936523438,0.10269427299499512,0.11017292737960815
1744883846218817000,17.103817138671875,-0.10610771179199219,0.20218968391418457,0.10920020937919617
1744883846235637000,17.120636962890625,0.1333150863647461,0.29677724838256836,0.06623873114585876
1744883846252448800,17.13744873046875,0.4149436950683594,0.32616281509399414,0.017828404903411865
1744883846269251000,17.1542509765625,0.6780834197998047,0.30298566818237305,-0.05146464705467224
1744883846286070500,17.171070556640625,0.8314714431762695,0.2418804168701172,-0.13307812809944153
1744883846302881000,17.187881103515625,0.8558778762817383,0.17780184745788574,-0.17594516277313232
1744883846319692500,17.204692626953126,0.7338628768920898,0.13563776016235352,-0.14990508556365967
1744883846336503000,17.2215029296875,0.49480533599853516,0.0630035400390625,-0.14088499546051025
1744883846353322800,17.23832275390625,0.22297286987304688,-0.010618925094604492,-0.15523704886436462
1744883846370124800,17.255124755859374,-0.00722503662109375,-0.09616780281066895,-0.13145533204078674
1744883846386939400,17.271939453125,-0.15101909637451172,-0.15522289276123047,-0.12149572372436523
1744883846403747000,17.2887470703125,-0.2010488510131836,-0.17560386657714844,-0.1032397449016571
1744883846420558300,17.305558349609374,-0.16204166412353516,-0.17063355445861816,-0.049007683992385864
1744883846437369000,17.322369140625,-0.04359149932861328,-0.16147112846374512,-0.021396607160568237
1744883846454180400,17.339180419921874,0.10490131378173828,-0.14246773719787598,0.008180826902389526
1744883846470992600,17.35599267578125,0.19967937469482422,-0.10793685913085938,-0.015476107597351074
1744883846487800800,17.37280078125,0.2255840301513672,-0.06492257118225098,-0.0490649938583374
1744883846504609800,17.38960986328125,0.17457199096679688,-0.012287616729736328,-0.024396926164627075
1744883846521427500,17.406427490234375,0.099578857421875,0.027286767959594727,0.02578595280647278
1744883846538235100,17.423235107421874,0.06387901306152344,0.05413365364074707,0.03623470664024353
1744883846555046400,17.44004638671875,0.10625648498535156,0.08281898498535156,0.004490524530410767
1744883846571854300,17.456854248046874,0.18026161193847656,0.09921145439147949,-0.001348733901977539
1744883846588659200,17.4736591796875,0.2578878402709961,0.05981183052062988,0.026450276374816895
1744883846605476400,17.490476318359374,0.2621450424194336,0.026073932647705078,0.0078074634075164795
1744883846622293200,17.507293212890627,0.18276023864746094,0.019852399826049805,-0.024073868989944458
1744883846639101200,17.52410107421875,0.0540618896484375,0.004236459732055664,0.021471768617630005
1744883846655909000,17.5409091796875,-0.05923938751220703,-0.006113290786743164,0.053445786237716675
1744883846672726500,17.5577265625,-0.13177967071533203,-0.0015997886657714844,0.03365349769592285
1744883846689534700,17.57453466796875,-0.15353679656982422,-0.0019826889038085938,-0.0006055831909179688
1744883846706344400,17.591344482421874,-0.1415853500366211,-0.05824613571166992,-0.022934436798095703
1744883846723157200,17.6081572265625,-0.05625343322753906,-0.0533754825592041,-0.07870233058929443
1744883846739967200,17.62496728515625,-0.00067138671875,-0.03380131721496582,-0.11377859115600586
1744883846756778500,17.641778564453126,0.018021583557128906,-0.014639616012573242,-0.09932130575180054
1744883846773589200,17.65858935546875,-0.07045555114746094,0.004743337631225586,-0.08179974555969238
1744883846790400800,17.67540087890625,-0.19025611877441406,-0.004323482513427734,-0.0654597282409668
1744883846807208000,17.6922080078125,-0.3067779541015625,-0.005086660385131836,-0.07439029216766357
1744883846824025900,17.70902587890625,-0.3544960021972656,0.0011529922485351562,-0.06689316034317017
1744883846840832500,17.72583251953125,-0.3196868896484375,0.03184938430786133,0.0033974051475524902
1744883846857646000,17.74264599609375,-0.25804996490478516,0.029587507247924805,0.05979657173156738
1744883846874439400,17.759439453125,-0.17252635955810547,0.019582509994506836,0.05957549810409546
1744883846891270000,17.776269775390624,-0.0844583511352539,0.001779794692993164,0.05613452196121216
1744883846908074200,17.79307421875,0.006543159484863281,-0.013666391372680664,0.09772467613220215
1744883846924891600,17.8098916015625,0.028293609619140625,-0.006223917007446289,0.11030071973800659
1744883846941699300,17.82669921875,0.057010650634765625,0.013309717178344727,0.06413614749908447
1744883846958511600,17.84351171875,0.12039566040039062,0.04177594184875488,0.05512946844100952
1744883846975308000,17.86030810546875,0.12847232818603516,0.045110464096069336,0.021939396858215332
1744883846992132900,17.8771328125,0.09975337982177734,0.05610489845275879,0.031145334243774414
1744883847008928800,17.8939287109375,0.0443267822265625,0.05770373344421387,0.04797780513763428
1744883847025760000,17.910760009765625,-0.05280780792236328,0.049646615982055664,0.04131424427032471
1744883847042558500,17.927558349609374,-0.1671762466430664,0.04181098937988281,0.05874249339103699
1744883847059380200,17.944380126953124,-0.2385396957397461,0.04770231246948242,0.055657267570495605
1744883847076187100,17.961187255859375,-0.21021270751953125,0.062470436096191406,0.034616827964782715
1744883847092999000,17.9779990234375,-0.10300827026367188,0.052095651626586914,0.04483526945114136
1744883847109806800,17.994806884765627,0.055199623107910156,0.024074077606201172,0.04725596308708191
1744883847126623200,18.011623291015624,0.18110179901123047,-0.02899789810180664,0.043915778398513794
1744883847143428000,18.028427978515627,0.2476816177368164,-0.05932903289794922,0.045911550521850586
1744883847160230700,18.045230712890625,0.18379783630371094,-0.08153414726257324,0.03477269411087036
1744883847177055700,18.0620556640625,0.024173736572265625,-0.08702802658081055,0.04590734839439392
1744883847193849900,18.078849853515624,-0.15267181396484375,-0.09982037544250488,0.05250990390777588
1744883847210661400,18.095661376953124,-0.26774120330810547,-0.09740781784057617,0.06776255369186401
1744883847227486700,18.11248681640625,-0.33508777618408203,-0.08448028564453125,0.08126059174537659
1744883847244294100,18.129294189453127,-0.3201751708984375,-0.0828702449798584,0.11453717947006226
1744883847261102600,18.1461025390625,-0.24320220947265625,-0.0467686653137207,0.11020737886428833
1744883847277919200,18.162919189453124,-0.09212970733642578,0.005541801452636719,0.08188319206237793
1744883847294731800,18.179731689453124,0.07329940795898438,0.0442655086517334,0.03884238004684448
1744883847311540200,18.196540283203124,0.2661094665527344,0.07886052131652832,0.009296774864196777
1744883847328352800,18.213352783203124,0.35799503326416016,0.08642768859863281,-0.01010042428970337
1744883847345161200,18.2301611328125,0.3923215866088867,0.07221651077270508,-0.01900583505630493
1744883847361977000,18.24697705078125,0.36543750762939453,0.06496143341064453,-0.019845187664031982
1744883847378773200,18.263773193359373,0.28969383239746094,0.058713674545288086,-0.0467667281627655
1744883847395596800,18.2805966796875,0.2147502899169922,0.033177852630615234,-0.05099409818649292
1744883847412397800,18.297397705078126,0.17351627349853516,-0.0008313655853271484,-0.03794068098068237
1744883847429218800,18.31421875,0.1535806655883789,-0.008358240127563477,-0.02300366759300232
1744883847446016300,18.331016357421873,0.12194156646728516,-0.029200077056884766,-0.022343724966049194
1744883847462840800,18.3478408203125,0.08627510070800781,-0.038498640060424805,-0.007197558879852295
1744883847479651300,18.3646513671875,0.030679702758789062,-0.04391884803771973,0.004392266273498535
1744883847496462800,18.381462890625,-0.011664390563964844,-0.044408559799194336,-0.0039511024951934814
1744883847513260300,18.39826025390625,-0.030554771423339844,-0.024166345596313477,0.001476585865020752
1744883847530089000,18.4150888671875,-0.011452674865722656,-0.020184755325317383,0.016131311655044556
1744883847546895400,18.431895263671876,0.05257225036621094,0.0025284290313720703,-0.006956905126571655
1744883847563706600,18.44870654296875,0.11145782470703125,0.013165473937988281,-0.020475715398788452
1744883847580523000,18.46552294921875,0.13634109497070312,0.015949726104736328,-0.019785821437835693
1744883847597328600,18.48232861328125,0.11279296875,0.009904623031616211,-0.016307085752487183
1744883847614127000,18.499127197265626,0.06560993194580078,0.033391714096069336,-0.021399885416030884
1744883847630950700,18.51595068359375,0.01906871795654297,0.07331657409667969,-0.017819315195083618
1744883847647761000,18.532760986328125,-0.019188880920410156,0.04762077331542969,0.051516830921173096
1744883847664569600,18.549569580078124,-0.17298603057861328,0.02566814422607422,0.038874804973602295
1744883847681386500,18.566386474609374,-0.16760826110839844,0.026542186737060547,-0.03184783458709717
1744883847698194700,18.583194580078125,0.04149055480957031,0.03957486152648926,-0.006267905235290527
1744883847714989000,18.599989013671873,0.08994197845458984,0.12926411628723145,-0.07566499710083008
1744883847731820000,18.616820068359374,0.14225101470947266,0.14154291152954102,-0.0799514651298523
1744883847748614000,18.63361376953125,0.16394901275634766,0.16145801544189453,-0.16850602626800537
1744883847765439000,18.65043896484375,0.07924175262451172,0.13461947441101074,-0.01854807138442993
1744883847782246000,18.667245849609376,0.062835693359375,0.045856475830078125,-0.053938716650009155
1744883847799064300,18.684064208984374,0.12366294860839844,-0.009731531143188477,-0.1667861044406891
1744883847815871500,18.70087158203125,0.14171981811523438,0.016169071197509766,-0.2080819308757782
1744883847832682800,18.717682861328125,0.14023685455322266,-0.05994868278503418,-0.40532514452934265
1744883847849493500,18.734493408203125,0.2161846160888672,-0.07760286331176758,-0.5078269243240356
1744883847866305000,18.751304931640625,0.1333751678466797,0.033115386962890625,-0.431131511926651
1744883847883110400,18.7681103515625,-0.003833770751953125,0.08192968368530273,-0.2928503453731537
1744883847899931600,18.784931640625,0.006630897521972656,-0.10423874855041504,-0.2263852059841156
1744883847916737300,18.8017373046875,-0.031815528869628906,-0.19131731986999512,-0.025719821453094482
1744883847933549000,18.818549072265625,-0.12224197387695312,-0.30159807205200195,0.13736456632614136
1744883847950359300,18.835359375,-0.31038665771484375,-0.3163330554962158,0.28663769364356995
1744883847967170800,18.8521708984375,-0.4357423782348633,-0.28847360610961914,0.2886420488357544
1744883847983981300,18.868981201171874,-0.5711803436279297,-0.28731870651245117,0.26143231987953186
1744883848000792800,18.885792724609374,-0.5891790390014648,-0.22893071174621582,0.22418735921382904
1744883848017603300,18.902603271484374,-0.5924978256225586,-0.1781771183013916,0.1520281285047531
1744883848034411500,18.91941162109375,-0.5239887237548828,-0.14256787300109863,0.08947587013244629
1744883848051228700,18.936228759765626,-0.4459705352783203,-0.0900876522064209,0.05066600441932678
1744883848068038700,18.95303857421875,-0.41866588592529297,-0.06004500389099121,0.07531851530075073
1744883848084845800,18.969845703125,-0.3599729537963867,-0.0010631084442138672,0.06067723035812378
1744883848101659000,18.986658935546874,-0.31369590759277344,0.03774619102478027,-0.01218363642692566
1744883848118456600,19.00345654296875,-0.22763347625732422,0.04690957069396973,-0.07920125126838684
1744883848135281000,19.020281005859374,-0.10889911651611328,0.08667540550231934,-0.07811227440834045
1744883848152091600,19.037091552734374,0.01930999755859375,0.059320688247680664,-0.07079291343688965
1744883848168891000,19.053890869140623,0.15780162811279297,0.03408527374267578,-0.029570579528808594
1744883848185714200,19.070714111328126,0.29320430755615234,-0.0010361671447753906,0.005301743745803833
1744883848202523000,19.08752294921875,0.4247865676879883,-0.008653402328491211,-0.026340782642364502
1744883848219324400,19.104324462890624,0.43619537353515625,0.01709580421447754,-0.040799111127853394
1744883848236146700,19.121146728515626,0.3517284393310547,0.031206369400024414,-0.03629222512245178
1744883848252957400,19.13795751953125,0.2887554168701172,0.07573556900024414,-0.0459616482257843
1744883848269769000,19.15476904296875,0.21323394775390625,0.04562067985534668,-0.1573444902896881
1744883848286579500,19.171579345703126,0.21469593048095703,0.030965566635131836,-0.24304956197738647
1744883848303391000,19.188390869140626,0.1871805191040039,0.03238534927368164,-0.22705599665641785
1744883848320201700,19.20520166015625,0.14750385284423828,0.03218555450439453,-0.20113196969032288
1744883848337004500,19.222004638671876,0.11970996856689453,0.05904364585876465,-0.15082180500030518
1744883848353814500,19.238814453125,0.09499359130859375,0.07392311096191406,-0.13728082180023193
1744883848370635000,19.255635009765626,0.07906818389892578,0.07061529159545898,-0.21664291620254517
1744883848387445800,19.27244580078125,0.02437114715576172,0.08108782768249512,-0.29812419414520264
1744883848404254500,19.28925439453125,0.04290485382080078,0.13547372817993164,-0.3240252733230591
1744883848421070300,19.3060703125,0.03865623474121094,0.0799558162689209,-0.3568801283836365
1744883848437878800,19.322878662109375,0.06687450408935547,0.04622173309326172,-0.3401069641113281
1744883848454686500,19.3396865234375,0.08547687530517578,0.03847312927246094,-0.3380207419395447
1744883848471501000,19.3565009765625,0.09051036834716797,0.06946563720703125,-0.34489619731903076
1744883848488314600,19.373314697265624,0.00231170654296875,0.08574533462524414,-0.32122915983200073
1744883848505123000,19.390123046875,-0.09130859375,0.1309957504272461,-0.2610100507736206
1744883848521933600,19.40693359375,-0.08951950073242188,0.22391390800476074,-0.07576817274093628
1744883848538732500,19.423732666015624,-0.0284423828125,0.2499535083770752,0.1606159210205078
1744883848555552300,19.44055224609375,0.18959712982177734,0.39375972747802734,0.4410480856895447
1744883848572370400,19.457370361328124,0.4002542495727539,0.45169925689697266,0.47366803884506226
1744883848589164300,19.474164306640624,0.5503864288330078,0.33880162239074707,0.36149275302886963
1744883848605989000,19.490989013671875,0.7575826644897461,0.37653303146362305,0.5390492081642151
1744883848622799400,19.50779931640625,0.886317253112793,0.34168171882629395,0.7575124502182007
1744883848639611100,19.524611083984375,0.9895544052124023,0.25781822204589844,0.975936233997345
1744883848656421600,19.541421630859375,1.1235437393188477,0.29790639877319336,1.1655292510986328
1744883848673233400,19.5582333984375,1.0189027786254883,0.22672152519226074,1.07411789894104
1744883848690043400,19.57504345703125,0.8789291381835938,0.06079912185668945,0.9603268504142761
1744883848706855200,19.591855224609375,0.6843061447143555,-0.02828693389892578,1.0744092464447021
1744883848723665700,19.608665771484375,0.45379638671875,-0.06225228309631348,1.1472233533859253
1744883848740477000,19.625476806640624,0.2910747528076172,-0.18259143829345703,0.8658255934715271
1744883848757287400,19.642287353515623,0.13475894927978516,-0.4094839096069336,0.3009147644042969
1744883848774099000,19.659098876953124,0.0007266998291015625,-0.6160831451416016,-0.2489413022994995
1744883848790906000,19.675906005859375,-0.14693069458007812,-0.7457003593444824,-0.3523975610733032
1744883848807720000,19.692719970703124,-0.3156423568725586,-0.8194575309753418,-0.20867681503295898
1744883848824533500,19.709533447265624,-0.5767154693603516,-0.9132182598114014,0.003472268581390381
1744883848841345800,19.726345703125,-0.9026012420654297,-0.8837318420410156,0.17392128705978394
1744883848858153500,19.743153564453124,-1.2231225967407227,-0.7492787837982178,0.09285587072372437
1744883848874965000,19.759965087890624,-1.459157943725586,-0.557154655456543,-0.11479824781417847
1744883848891775500,19.776775390625,-1.6028509140014648,-0.48282933235168457,-0.2852572798728943
1744883848908563200,19.793563232421874,-1.643831729888916,-0.47908782958984375,-0.2523682117462158
1744883848925386800,19.81038671875,-1.4452495574951172,-0.4322645664215088,-0.017856717109680176
1744883848942209000,19.827208984375,-0.9851598739624023,-0.3633565902709961,0.14496755599975586
1744883848959006700,19.8440068359375,-0.5694980621337891,-0.3313002586364746,0.09878253936767578
1744883848975831000,19.8608310546875,-0.09868049621582031,-0.38934779167175293,-0.17331451177597046
1744883848992641300,19.877641357421876,0.8890085220336914,-0.9631726741790771,-0.4718055725097656
1744883849009428500,19.894428466796874,1.6264095306396484,-0.9164438247680664,0.040303051471710205
1744883849026266600,19.9112666015625,1.3147878646850586,-0.2522590160369873,-0.015467941761016846
1744883849043074800,19.92807470703125,0.9398956298828125,0.23621273040771484,-0.42736005783081055
1744883849059885300,19.94488525390625,0.28182315826416016,0.26853060722351074,-0.4323764443397522
1744883849076694500,19.961694580078124,-0.37435150146484375,0.33827948570251465,-0.12153524160385132
1744883849093507300,19.97850732421875,-0.8316478729248047,0.4985990524291992,0.031654298305511475
1744883849110318800,19.99531884765625,-0.9216547012329102,0.7562263011932373,-0.19171947240829468
1744883849127129300,20.01212939453125,-0.5910367965698242,0.8706238269805908,-0.2869817614555359
1744883849143942700,20.028942626953125,-0.0221710205078125,0.6507570743560791,-0.1669762134552002
1744883849160746800,20.045746826171875,0.4692535400390625,0.3514719009399414,-0.14301222562789917
1744883849177566200,20.062566162109373,0.7530126571655273,0.11147618293762207,-0.2610189914703369
1744883849194370600,20.07937060546875,0.8088893890380859,-0.13090157508850098,-0.37475669384002686
1744883849211185700,20.096185546875,0.671229362487793,-0.25571417808532715,-0.3046661615371704
1744883849227998000,20.112998046875,0.4321317672729492,-0.26250433921813965,-0.15117037296295166
1744883849244804400,20.129804443359376,0.0914754867553711,-0.1560206413269043,-0.08774220943450928
1744883849261620200,20.1466201171875,-0.19382667541503906,-0.020556211471557617,-0.19766592979431152
1744883849278416600,20.163416748046874,-0.33884525299072266,0.02371692657470703,-0.3407294750213623
1744883849295223000,20.18022314453125,-0.3786354064941406,-0.027577877044677734,-0.31431013345718384
1744883849312031700,20.19703173828125,-0.3309593200683594,-0.10561656951904297,-0.20611274242401123
1744883849328848600,20.2138486328125,-0.30776309967041016,-0.09571218490600586,-0.12171006202697754
1744883849345673200,20.230673095703125,-0.2745857238769531,-0.058591365814208984,-0.10487818717956543
1744883849362483500,20.2474833984375,-0.13412857055664062,0.02395796775817871,-0.10379230976104736
1744883849379295200,20.264295166015625,-0.009102821350097656,0.12784385681152344,-0.12136715650558472
1744883849396105500,20.28110546875,0.12094402313232422,0.16959667205810547,-0.15499448776245117
1744883849412904000,20.297904052734374,0.20044708251953125,0.1570422649383545,-0.14470022916793823
1744883849429727700,20.314727783203125,0.1649312973022461,0.1067512035369873,-0.03582477569580078
1744883849446539000,20.3315390625,0.1114969253540039,0.06472563743591309,0.030108332633972168
1744883849463349500,20.348349609375,0.09114837646484375,0.0473322868347168,0.0393223762512207
1744883849480157700,20.36515771484375,0.0367431640625,0.06258487701416016,0.05521512031555176
1744883849496974600,20.381974609375,0.007320404052734375,0.04806256294250488,0.07805085182189941
1744883849513772300,20.398772216796875,0.0035333633422851562,0.059136152267456055,0.06747546792030334
