time,seconds_elapsed,z,y,x
1744883829172449800,0.05744970703125,9.501300811767578,2.5226333141326904,-0.39182472229003906
1744883829189265200,0.07426513671875,9.400801658630371,2.550748825073242,-0.3768695592880249
1744883829206080500,0.09108056640625,9.295517921447754,2.5980072021484375,-0.36670008301734924
1744883829222889000,0.107888916015625,9.266803741455078,2.602792739868164,-0.34277185797691345
1744883829239688000,0.12468798828125,9.290133476257324,2.6075785160064697,-0.4145565330982208
1744883829256511200,0.14151123046875,9.361918449401855,2.5842485427856445,-0.4342973232269287
1744883829273319400,0.1583193359375,9.42473030090332,2.56510591506958,-0.3433700501918793
1744883829290136800,0.17513671875,9.467801094055176,2.565704107284546,-0.36251261830329895
1744883829306944800,0.19194482421875,9.505488395690918,2.5800609588623047,-0.41994038224220276
1744883829323757300,0.20875732421875,9.544371604919434,2.589632272720337,-0.31046873331069946
1744883829340551700,0.2255517578125,9.530014038085938,2.5848467350006104,-0.2961117923259735
1744883829357377500,0.24237744140625,9.491728782653809,2.5848467350006104,-0.36251261830329895
1744883829374188800,0.259188720703125,9.4390869140625,2.5938198566436768,-0.36729827523231506
1744883829390999600,0.27599951171875,9.376873970031738,2.579462766647339,-0.3290131092071533
1744883829407810800,0.292810791015625,9.32004451751709,2.5405795574188232,-0.3242274820804596
1744883829424619000,0.309618896484375,9.291330337524414,2.544766902923584,-0.2907279431819916
1744883829441435400,0.326435302734375,9.238688468933105,2.568695068359375,-0.3044866919517517
1744883829458243800,0.343243896484375,9.166903495788574,2.5734808444976807,-0.3188436031341553
1744883829475055000,0.36005517578125,9.123832702636719,2.6249263286590576,-0.2470589429140091
1744883829491865600,0.376865478515625,9.161520004272461,2.6638097763061523,-0.2470589429140091
1744883829508664000,0.3936640625,9.366106033325195,2.6985056400299072,-0.3284149169921875
1744883829525487600,0.410487548828125,9.65803050994873,2.685943365097046,-0.31046873331069946
1744883829542299100,0.427299072265625,9.882357597351074,2.691925525665283,-0.3487538993358612
1744883829559110700,0.444110595703125,9.92961597442627,2.6877379417419434,-0.3732803463935852
1744883829575920000,0.460920166015625,9.907482147216797,2.5435705184936523,-0.33080771565437317
1744883829592731000,0.47773095703125,9.997213363647461,2.606382131576538,-0.35473597049713135
1744883829609544200,0.494544189453125,9.993623733520508,2.520240545272827,-0.32123643159866333
1744883829626353700,0.511353759765625,9.975677490234375,2.400599241256714,-0.3314059376716614
1744883829643164400,0.528164306640625,9.857233047485352,2.337787628173828,-0.29790642857551575
1744883829659977200,0.544977294921875,9.652048110961914,2.2743778228759766,-0.32123643159866333
1744883829676787500,0.561787353515625,9.418149948120117,2.287538528442383,-0.3158525824546814
1744883829693597700,0.57859765625,9.260223388671875,2.334198474884033,-0.2626122832298279
1744883829710409500,0.595409423828125,9.145966529846191,2.3336002826690674,-0.22911277413368225
1744883829727219700,0.6122197265625,9.117252349853516,2.324028968811035,-0.21954147517681122
1744883829744031500,0.629031494140625,9.198010444641113,2.3437697887420654,-0.28175488114356995
1744883829760842000,0.645842041015625,9.349954605102539,2.383251428604126,-0.3487538993358612
1744883829777653500,0.662653564453125,9.569496154785156,2.417947292327881,-0.38763725757598877
1744883829794461000,0.6794609375,9.726823806762695,2.4424736499786377,-0.38285163044929504
1744883829811278600,0.696278564453125,9.860223770141602,2.410170555114746,-0.40737804770469666
1744883829828086000,0.7130859375,9.884750366210938,2.400599241256714,-0.40259242057800293
1744883829844897500,0.7298974609375,9.80817985534668,2.414358139038086,-0.3355933725833893
1744883829861708300,0.746708251953125,9.57906723022461,2.441875457763672,-0.3158525824546814
1744883829878513200,0.76351318359375,9.367900848388672,2.517249345779419,-0.33379876613616943
1744883829895330000,0.780330078125,9.176474571228027,2.5782663822174072,-0.33798620104789734
1744883829912141800,0.797141845703125,9.123832702636719,2.5974090099334717,-0.3762713670730591
1744883829928940800,0.81394091796875,9.161520004272461,2.616551637649536,-0.3810569941997528
1744883829945763600,0.830763671875,9.2859468460083,2.5884358882904053,-0.4001995921134949
1744883829962577200,0.8475771484375,9.453444480895996,2.565704107284546,-0.4055834412574768
1744883829979370800,0.864370849609375,9.544371604919434,2.537588357925415,-0.4061816334724426
1744883829996196400,0.8811962890625,9.606584548950195,2.5232315063476562,-0.4013960063457489
1744883830013008000,0.8980078125,9.606584548950195,2.5328028202056885,-0.372682124376297
1744883830029818400,0.914818359375,9.505488395690918,2.5704896450042725,-0.38644084334373474
1744883830046630000,0.9316298828125,9.400801658630371,2.5698914527893066,-0.381655216217041
1744883830063437000,0.94843701171875,9.262018203735352,2.602792739868164,-0.4001995921134949
1744883830080255000,0.9652548828125,9.123234748840332,2.640479803085327,-0.3900300860404968
1744883830097062400,0.9820625,9.032307624816895,2.659024238586426,-0.36610186100006104
1744883830113874000,0.9988740234375,9.022735595703125,2.668595552444458,-0.39900317788124084
1744883830130684400,1.015684326171875,9.079565048217773,2.6596224308013916,-0.45224347710609436
1744883830147496200,1.03249609375,9.136993408203125,2.650649309158325,-0.5144568681716919
1744883830164301300,1.04930126953125,9.151350021362305,2.6835505962371826,-0.42352959513664246
1744883830181123000,1.066123046875,9.189037322998047,2.702693223953247,-0.42831525206565857
1744883830197928400,1.082928466796875,9.183652877807617,2.765504837036133,-0.45164528489112854
1744883830214740000,1.099739990234375,9.18843936920166,2.8462624549865723,-0.3655036687850952
1744883830231550500,1.116550537109375,9.111868858337402,2.803191661834717,-0.4372883439064026
1744883830248362500,1.133362548828125,9.17288589477539,2.8941190242767334,-0.4175475537776947
1744883830265172500,1.15017236328125,9.10110092163086,2.9318058490753174,-0.4223332107067108
1744883830281982700,1.166982666015625,9.177671432495117,2.974876642227173,-0.3696911036968231
1744883830298783700,1.18378369140625,9.350552558898926,2.899502754211426,-0.31345975399017334
1744883830315607000,1.20060693359375,9.57906723022461,2.8725836277008057,-0.47617170214653015
1744883830332416500,1.21741650390625,9.770493507385254,2.7361927032470703,-0.6496513485908508
1744883830349228300,1.234228271484375,9.828518867492676,2.6362924575805664,-0.6783652305603027
1744883830366038500,1.25103857421875,9.719645500183105,2.5872395038604736,-0.6119644045829773
1744883830382850000,1.26785009765625,9.514460563659668,2.586043119430542,-0.5635097622871399
1744883830399658000,1.284657958984375,9.357132911682129,2.6087749004364014,-0.4815555512905121
1744883830416489000,1.301489013671875,9.405587196350098,2.56510591506958,-0.4103690981864929
1744883830433282800,1.31828271484375,9.587442398071289,2.4945175647735596,-0.43968117237091064
1744883830450094000,1.335093994140625,9.821938514709473,2.4149563312530518,-0.5030909776687622
1744883830466904000,1.351904052734375,9.965508460998535,2.3395824432373047,-0.4989035129547119
1744883830483716400,1.36871630859375,9.832706451416016,2.2809581756591797,-0.47976094484329224
1744883830500526800,1.38552685546875,9.751948356628418,2.280359983444214,-0.35054850578308105
1744883830517338400,1.40233837890625,9.690333366394043,2.3030917644500732,-0.21655045449733734
1744883830534148900,1.41914892578125,9.5802640914917,2.3126630783081055,-0.33080771565437317
1744883830550957000,1.43595703125,9.57906723022461,2.3748764991760254,-0.38285163044929504
1744883830567758600,1.452758544921875,9.550353050231934,2.4083759784698486,-0.3732803463935852
1744883830584567000,1.469567138671875,9.554540634155273,2.4705893993377686,-0.3774677813053131
1744883830601397500,1.4863974609375,9.54915714263916,2.528017044067383,-0.39182472229003906
1744883830618199800,1.50319970703125,9.538987159729004,2.5800609588623047,-0.372682124376297
1744883830635018800,1.520018798828125,9.524630546569824,2.6183462142944336,-0.3529413342475891
1744883830651823000,1.536822998046875,9.534201622009277,2.6087749004364014,-0.3439682424068451
1744883830668624100,1.5536240234375,9.614959716796875,2.6428725719451904,-0.38644084334373474
1744883830685448700,1.57044873046875,9.757332801818848,2.6967110633850098,-0.44446679949760437
1744883830702259200,1.58725927734375,9.838089942932129,2.7116663455963135,-0.46360939741134644
1744883830719070700,1.60407080078125,9.876375198364258,2.6973092555999756,-0.4827519655227661
1744883830735880000,1.6208798828125,9.833304405212402,2.6877379417419434,-0.544965386390686
1744883830752694000,1.637694091796875,9.810572624206543,2.682354211807251,-0.4013960063457489
1744883830769515800,1.654515869140625,9.686744689941406,2.6668007373809814,-0.3008974492549896
1744883830786314800,1.671314697265625,9.620343208312988,2.675773859024048,-0.23389841616153717
1744883830803122000,1.688121826171875,9.638887405395508,2.699702262878418,-0.25782662630081177
1744883830819940000,1.704940185546875,9.897313117980957,2.65842604637146,-0.2727817893028259
1744883830836744200,1.721744140625,10.118050575256348,2.5351955890655518,-0.2309073805809021
1744883830853561900,1.738561767578125,10.343574523925781,2.407179594039917,-0.20817556977272034
1744883830870368300,1.7553681640625,10.248459815979004,2.38265323638916,-0.26081767678260803
1744883830887181600,1.772181640625,9.966106414794922,2.386840581893921,-0.37926238775253296
1744883830904006000,1.789005859375,9.478569030761719,2.4699912071228027,-0.33439695835113525
1744883830920803000,1.805802978515625,8.914461135864258,2.575873613357544,-0.1698904037475586
1744883830937613300,1.82261328125,8.51306438446045,2.71645188331604,0.008374879136681557
1744883830954421800,1.839421875,8.205587387084961,2.9108686447143555,-0.07118647545576096
1744883830971238700,1.85623876953125,8.065009117126465,3.0113673210144043,-0.20877377688884735
1744883830988046800,1.873046875,8.01236629486084,3.1250264644622803,-0.11306086927652359
1744883831004835600,1.889835693359375,8.299505233764648,3.1543383598327637,0.12023933976888657
1744883831021669000,1.906669189453125,8.652446746826172,3.1663026809692383,-0.009571290574967861
1744883831038466300,1.92346630859375,8.903095245361328,3.2506494522094727,-0.2961117923259735
1744883831055291100,1.940291015625,8.86361312866211,3.308077335357666,-0.39122650027275085
1744883831072101400,1.957101318359375,8.672187805175781,3.4025938510894775,-0.3810569941997528
1744883831088901000,1.973901123046875,8.499305725097656,3.5306098461151123,-0.3607180118560791
1744883831105702000,1.990701904296875,8.520841598510742,3.6843485832214355,-0.45583271980285645
1744883831122523400,2.0075234375,8.834898948669434,3.7256247997283936,-0.6185446381568909
1744883831139345700,2.024345703125,9.187840461730957,3.689732551574707,-0.7722834944725037
1744883831156145000,2.041144775390625,9.613762855529785,3.586841106414795,-0.7597211599349976
1744883831172967400,2.057967529296875,9.81117057800293,3.4444682598114014,-0.6843472719192505
1744883831189779200,2.074779296875,9.855438232421875,3.3343982696533203,-0.6514459848403931
1744883831206576600,2.09157666015625,9.745966911315918,3.31465744972229,-0.6275177597999573
1744883831223401000,2.10840087890625,9.550951957702637,3.2745778560638428,-0.5126622319221497
1744883831240200000,2.125199951171875,9.33739185333252,3.201596736907959,-0.46002015471458435
1744883831257023200,2.142023193359375,9.118449211120605,3.0999016761779785,-0.4743770956993103
1744883831273833700,2.158833740234375,8.971888542175293,3.0173492431640625,-0.3690928816795349
1744883831290645200,2.175645263671875,8.905488014221191,3.001796007156372,-0.29730820655822754
1744883831307455700,2.192455810546875,8.872586250305176,2.9730820655822754,-0.268594354391098
1744883831324264000,2.209263916015625,8.915059089660645,3.0209386348724365,-0.2638086974620819
1744883831341076200,2.226076171875,8.93838882446289,3.049652576446533,-0.25423741340637207
1744883831357889300,2.24288916015625,9.039485931396484,3.050250768661499,-0.1782652884721756
1744883831374696700,2.25969677734375,9.192028045654297,3.060420274734497,-0.18305093050003052
1744883831391514600,2.2765146484375,9.315258979797363,3.118446111679077,-0.2309073805809021
1744883831408321800,2.29332177734375,9.400801658630371,3.166900873184204,-0.19262222945690155
1744883831425133800,2.3101337890625,9.491130828857422,3.2297122478485107,-0.22612173855304718
1744883831441941000,2.32694091796875,9.55753231048584,3.2590243816375732,-0.259621262550354
1744883831458743300,2.343743408203125,9.552745819091797,3.2542388439178467,-0.2835494875907898
1744883831475565800,2.36056591796875,9.523433685302734,3.249453067779541,-0.3314059376716614
1744883831492377300,2.37737744140625,9.476176261901855,3.2159535884857178,-0.34576287865638733
1744883831509188000,2.39418798828125,9.419346809387207,3.1818559169769287,-0.3314059376716614
1744883831525999600,2.41099951171875,9.366703987121582,3.153141975402832,-0.3696911036968231
1744883831542810000,2.42781005859375,9.309276580810547,3.1339993476867676,-0.388235479593277
1744883831559621600,2.44462158203125,9.257830619812012,3.0855448246002197,-0.35054850578308105
1744883831576432000,2.46143212890625,9.205188751220703,3.047259569168091,-0.37447673082351685
1744883831593243400,2.478243408203125,9.162715911865234,3.0137600898742676,-0.40797626972198486
1744883831610054100,2.49505419921875,9.139386177062988,2.984447956085205,-0.37447673082351685
1744883831626871300,2.511871337890625,9.139386177062988,2.9796624183654785,-0.3409772217273712
1744883831643676200,2.52867626953125,9.120243072509766,2.998805046081543,-0.3409772217273712
1744883831660488200,2.54548828125,9.19143009185791,2.994617462158203,-0.364905446767807
1744883831677298200,2.562298095703125,9.31585693359375,3.0143582820892334,-0.3601198196411133
1744883831694109700,2.579109619140625,9.392427444458008,2.995215654373169,-0.31764721870422363
1744883831710920400,2.59592041015625,9.45882797241211,3.005385160446167,-0.31764721870422363
1744883831727730200,2.612730224609375,9.425926208496094,3.004786968231201,-0.2793620526790619
1744883831744540700,2.629540771484375,9.340383529663086,2.999403238296509,-0.2267199456691742
1744883831761356800,2.646356689453125,9.278169631958008,3.008376359939575,-0.2315055876970291
1744883831778161400,2.663161376953125,9.263813018798828,2.998805046081543,-0.26979073882102966
1744883831794978800,2.679978759765625,9.31585693359375,3.008974552154541,-0.2793620526790619
1744883831811786500,2.696786376953125,9.392427444458008,3.0239295959472656,-0.26500511169433594
1744883831828585500,2.71358544921875,9.464211463928223,2.9904301166534424,-0.275174617767334
1744883831845411600,2.73041162109375,9.492327690124512,2.9958138465881348,-0.35114672780036926
1744883831862220300,2.74722021484375,9.497711181640625,2.957528829574585,-0.34217363595962524
1744883831879030500,2.764030517578125,9.459425926208496,2.957528829574585,-0.31824541091918945
1744883831895842000,2.780842041015625,9.46899700164795,2.9479575157165527,-0.3565305769443512
1744883831912652500,2.797652587890625,9.502496719360352,2.943770170211792,-0.3900300860404968
1744883831929464000,2.814464111328125,9.473783493041992,2.9288148880004883,-0.3852444589138031
1744883831946274600,2.831274658203125,9.435498237609863,2.943171739578247,-0.39900317788124084
1744883831963085000,2.8480849609375,9.364311218261719,2.9282166957855225,-0.3607180118560791
1744883831979897600,2.864897705078125,9.288339614868164,2.8941190242767334,-0.32721850275993347
1744883831996708400,2.881708251953125,9.265008926391602,2.86061954498291,-0.28953152894973755
1744883832013518600,2.8985185546875,9.236893653869629,2.816950559616089,-0.27038896083831787
1744883832030330400,2.915330322265625,9.313464164733887,2.8223342895507812,-0.1986042857170105
1744883832047141000,2.93214111328125,9.117252349853516,2.7499513626098633,-0.3607180118560791
1744883832063950000,2.9489501953125,8.954540252685547,2.8492536544799805,-0.259621262550354
1744883832080765200,2.96576513671875,8.801400184631348,2.905484914779663,-0.2877369225025177
1744883832097574700,2.98257470703125,8.70927619934082,3.005983352661133,-0.363709032535553
1744883832114382800,2.9993828125,8.885746955871582,3.035893678665161,-0.35892340540885925
1744883832131198500,3.016198486328125,9.258428573608398,2.956930637359619,-0.4414757788181305
1744883832148007000,3.0330068359375,9.494720458984375,3.178266763687134,-0.48454657196998596
1744883832164815600,3.049815673828125,9.839286804199219,3.1280174255371094,-0.4899304509162903
1744883832181631500,3.066631591796875,10.123434066772461,2.937189817428589,-0.3678964674472809
1744883832198418200,3.083418212890625,10.231709480285645,3.0388846397399902,-0.50129634141922
1744883832215251000,3.1002509765625,10.202397346496582,2.901895761489868,-0.778863787651062
1744883832232062500,3.1170625,10.077970504760742,2.8588249683380127,-0.9170492887496948
1744883832248872700,3.133872802734375,9.887741088867188,2.7906293869018555,-0.9026923179626465
1744883832265681400,3.150681396484375,9.597013473510742,2.726621389389038,-0.8973084688186646
1744883832282504000,3.16750390625,9.34875774383545,2.720639228820801,-0.906281590461731
1744883832299306500,3.184306396484375,9.256035804748535,2.4047868251800537,-0.9601200819015503
1744883832316117000,3.201116943359375,9.215357780456543,2.558525562286377,-1.1976077556610107
1744883832332919600,3.21791943359375,9.046066284179688,2.9527430534362793,-0.8422735929489136
1744883832349739000,3.234739013671875,8.959924697875977,3.1136605739593506,-0.5928218364715576
1744883832366535200,3.25153515625,8.871390342712402,3.0969107151031494,-0.2392822653055191
1744883832383360500,3.268360595703125,8.890532493591309,3.153740167617798,-0.10049854964017868
1744883832400177000,3.285177001953125,8.923434257507324,3.202194929122925,-0.13878370821475983
1744883832416983000,3.301983154296875,9.071788787841797,3.11246395111084,-0.17766708135604858
1744883832433794800,3.318794921875,9.239286422729492,3.0370900630950928,-0.29312077164649963
1744883832450605300,3.335605224609375,9.325428009033203,3.0143582820892334,-0.3320041298866272
1744883832467416800,3.352416748046875,9.445069313049316,3.005385160446167,-0.3032902777194977
1744883832484223700,3.3692236328125,9.497113227844238,2.9629125595092773,-0.4133601188659668
1744883832501039000,3.3860390625,9.439684867858887,2.919841766357422,-0.5186443328857422
1744883832517852400,3.402852294921875,9.449256896972656,2.8965117931365967,-0.5569294691085815
1744883832534657500,3.419657470703125,9.531210899353027,2.8486554622650146,-0.5096712112426758
1744883832551474400,3.436474365234375,9.550353050231934,2.8390841484069824,-0.5240281820297241
1744883832568269600,3.45326953125,9.660423278808594,2.815753936767578,-0.4911268353462219
1744883832585093400,3.47009326171875,9.651450157165527,2.744567632675171,-0.5437689423561096
1744883832601904600,3.486904541015625,9.661619186401367,2.682354211807251,-0.5587241053581238
1744883832618704000,3.503703857421875,9.53779125213623,2.648256540298462,-0.5533402562141418
1744883832635526700,3.520526611328125,9.385248184204102,2.6285157203674316,-0.5629115104675293
1744883832652337400,3.53733740234375,9.265607833862305,2.6422743797302246,-0.5814558863639832
1744883832669132800,3.5541328125,9.241679191589355,2.651247501373291,-0.5575276613235474
1744883832685959400,3.57095947265625,9.275776863098145,2.6177480220794678,-0.49591249227523804
1744883832702771000,3.58777099609375,9.290133476257324,2.5938198566436768,-0.5246263742446899
1744883832719582500,3.60458251953125,9.303893089294434,2.6087749004364014,-0.5916253924369812
1744883832736389400,3.621389404296875,9.313464164733887,2.5800609588623047,-0.5964110493659973
1744883832753206300,3.638206298828125,9.352347373962402,2.5561327934265137,-0.5102694034576416
1744883832770027800,3.65502783203125,9.352945327758789,2.550748825073242,-0.44386860728263855
1744883832786825500,3.671825439453125,9.381659507751465,2.5609183311462402,-0.4342973232269287
1744883832803637000,3.688636962890625,9.45763111114502,2.5800609588623047,-0.4773681163787842
1744883832820447500,3.705447509765625,9.538987159729004,2.561516523361206,-0.4534398913383484
1744883832837256000,3.722255859375,9.58205795288086,2.5710878372192383,-0.4301098585128784
1744883832854073000,3.739072998046875,9.558130264282227,2.5902304649353027,-0.43908295035362244
1744883832870881300,3.75588134765625,9.500701904296875,2.6087749004364014,-0.4247260093688965
1744883832887679000,3.772678955078125,9.404989242553711,2.6081767082214355,-0.41515472531318665
1744883832904484900,3.78948486328125,9.256634712219238,2.6123640537261963,-0.44805604219436646
1744883832921315000,3.806315185546875,9.203991889953613,2.6075785160064697,-0.4576273262500763
1744883832938125300,3.823125244140625,9.18006420135498,2.617149829864502,-0.4713860750198364
1744883832954935800,3.839935791015625,9.21834945678711,2.60339093208313,-0.5479564070701599
1744883832971747300,3.856747314453125,9.279964447021484,2.6039891242980957,-0.5910272002220154
1744883832988566300,3.873566162109375,9.294919967651367,2.5800609588623047,-0.5485545992851257
1744883833005358000,3.890358154296875,9.314062118530273,2.5561327934265137,-0.5198407173156738
1744883833022184400,3.907184326171875,9.290133476257324,2.551347255706787,-0.5246263742446899
1744883833038991600,3.92399169921875,9.280562400817871,2.551347255706787,-0.5533402562141418
1744883833055801900,3.9408017578125,9.270991325378418,2.5561327934265137,-0.5485545992851257
1744883833072613400,3.95761328125,9.252447128295898,2.5603201389312744,-0.5006981492042542
1744883833089424100,3.974424072265625,9.238089561462402,2.5698914527893066,-0.5054838061332703
1744883833106241500,3.991241455078125,9.21416187286377,2.5501506328582764,-0.5054838061332703
1744883833123046100,4.008046142578125,9.180662155151367,2.554936408996582,-0.5150550603866577
1744883833139857700,4.024857666015625,9.142376899719238,2.54536509513855,-0.5054838061332703
1744883833156668200,4.041668212890625,9.132805824279785,2.578864574432373,-0.5144568681716919
1744883833173479700,4.058479736328125,9.084949493408203,2.5734808444976807,-0.5048855543136597
1744883833190287000,4.075287109375,9.032905578613281,2.5639095306396484,-0.47617170214653015
1744883833207105000,4.09210498046875,8.980263710021973,2.5537400245666504,-0.4666004180908203
1744883833223906800,4.10890673828125,8.9850492477417,2.5489542484283447,-0.4713860750198364
1744883833240723700,4.1257236328125,9.004191398620605,2.558525562286377,-0.4618147611618042
1744883833257534500,4.142534423828125,9.037691116333008,2.558525562286377,-0.4378865361213684
1744883833274342700,4.1593427734375,9.090332984924316,2.572882652282715,-0.39541393518447876
1744883833291159600,4.17615966796875,9.162117958068848,2.5782663822174072,-0.3523431420326233
1744883833307967700,4.1929677734375,9.205188751220703,2.5357937812805176,-0.39541393518447876
1744883833324775000,4.20977490234375,9.19023323059082,2.592623233795166,-0.4097708761692047
1744883833341587200,4.226587158203125,9.133403778076172,2.5399811267852783,-0.45284169912338257
1744883833358400500,4.243400390625,9.113663673400879,2.6350958347320557,-0.3278166949748993
1744883833375212000,4.2602119140625,9.138189315795898,2.5776681900024414,-0.3332005441188812
1744883833392022800,4.277022705078125,9.233304023742676,2.616551637649536,-0.2997010350227356
1744883833408823800,4.29382373046875,9.181260108947754,2.583052158355713,-0.3762713670730591
1744883833425644300,4.310644287109375,9.161520004272461,2.6213371753692627,-0.37148571014404297
1744883833442443300,4.327443359375,9.128020286560059,2.6500511169433594,-0.380458801984787
1744883833459266600,4.3442666015625,9.147162437438965,2.659024238586426,-0.3565305769443512
1744883833476078300,4.361078369140625,9.132805824279785,2.630310297012329,-0.3613162338733673
1744883833492888600,4.377888671875,9.113663673400879,2.6261229515075684,-0.4091726839542389
1744883833509700400,4.394700439453125,9.013164520263672,2.620738983154297,-0.41874396800994873
1744883833526510600,4.411510498046875,8.903693199157715,2.6297121047973633,-0.39900317788124084
1744883833543322000,4.428322021484375,8.827122688293457,2.657827854156494,-0.37507495284080505
1744883833560120600,4.44512060546875,8.731410026550293,2.662015199661255,-0.37447673082351685
1744883833576944000,4.461944091796875,8.72183895111084,2.6428725719451904,-0.40319061279296875
1744883833593754600,4.478754638671875,8.755337715148926,2.6141586303710938,-0.4133601188659668
1744883833610566100,4.495566162109375,8.831908226013184,2.610569477081299,-0.4372883439064026
1744883833627376600,4.512376708984375,8.85523796081543,2.644068956375122,-0.45643091201782227
1744883833644188400,4.5291884765625,8.836095809936523,2.644068956375122,-0.45164528489112854
1744883833660986400,4.545986328125,8.821739196777344,2.672184705734253,-0.39840495586395264
1744883833677810400,4.562810546875,8.812167167663574,2.696112871170044,-0.40797626972198486
1744883833694605000,4.57960498046875,8.801998138427734,2.743969440460205,-0.4366901218891144
1744883833711435300,4.596435302734375,8.825926780700684,2.7535407543182373,-0.4223332107067108
1744883833728243000,4.613242919921875,8.816354751586914,2.7535407543182373,-0.4462614357471466
1744883833745054500,4.630054443359375,8.840283393859863,2.710469961166382,-0.45104706287384033
1744883833761865000,4.646864990234375,8.811569213867188,2.720041036605835,-0.46061834692955017
1744883833778663400,4.663663330078125,8.787641525268555,2.720041036605835,-0.42711883783340454
1744883833795487000,4.680487060546875,8.85523796081543,2.681756019592285,-0.4181457459926605
1744883833812298500,4.697298583984375,8.816953659057617,2.657827854156494,-0.46061834692955017
1744883833829109200,4.714109130859375,8.784051895141602,2.6147570610046387,-0.4707878530025482
1744883833845920500,4.73092041015625,8.731410026550293,2.623729944229126,-0.45104706287384033
1744883833862731000,4.74773095703125,8.703293800354004,2.609373092651367,-0.40797626972198486
1744883833879542800,4.764542724609375,8.550751686096191,2.612962245941162,-0.35533416271209717
1744883833896353000,4.78135302734375,8.422736167907715,2.4975085258483887,-0.3840480446815491
1744883833913164500,4.79816455078125,8.422736167907715,2.459223508834839,-0.3840480446815491
1744883833929975300,4.814975341796875,8.58604621887207,2.469393014907837,-0.2225325107574463
1744883833946786800,4.831786865234375,8.647661209106445,2.5118656158447266,-0.16031911969184875
1744883833963597300,4.848597412109375,8.761320114135742,2.5944180488586426,-0.2602194547653198
1744883833980408800,4.865408935546875,8.897710800170898,2.706282377243042,-0.4420739710330963
1744883833997219300,4.88221923828125,9.06401252746582,2.764906644821167,-0.5282155871391296
1744883834014030600,4.899030517578125,9.41635513305664,2.7912275791168213,-0.6532405614852905
1744883834030841300,4.91584130859375,9.740582466125488,2.765504837036133,-0.8404789566993713
1744883834047649500,4.9326494140625,10.012765884399414,2.6763720512390137,-0.9559326171875
1744883834064463400,4.94946337890625,10.085747718811035,2.5908286571502686,-0.8799605369567871
1744883834081278200,4.9662783203125,10.015159606933594,2.536990165710449,-0.7369893789291382
1744883834098085400,4.98308544921875,9.915258407592773,2.554936408996582,-0.6454638838768005
1744883834114897000,4.99989697265625,9.68076229095459,2.596810817718506,-0.625723123550415
1744883834131707400,5.016707275390625,9.357132911682129,2.528017044067383,-0.6011967062950134
1744883834148513300,5.03351318359375,9.014959335327148,2.4197418689727783,-0.4384847581386566
1744883834165329400,5.050329345703125,8.782855987548828,2.3030917644500732,-0.2476571500301361
1744883834182141200,5.06714111328125,8.617152214050293,2.234896421432495,-0.17587246000766754
1744883834198938400,5.0839384765625,8.669795036315918,2.2396819591522217,-0.15194423496723175
1744883834215763200,5.10076318359375,8.803194046020508,2.259422779083252,-0.12801600992679596
1744883834232573400,5.117573486328125,9.022735595703125,2.2654049396514893,-0.17168502509593964
1744883834249385200,5.13438525390625,9.179466247558594,2.23848557472229,-0.33499518036842346
1744883834266193700,5.151193603515625,9.298508644104004,2.249253273010254,-0.4498506486415863
1744883834283006000,5.168005859375,9.3457670211792,2.2881367206573486,-0.47796630859375
1744883834299821300,5.1848212890625,9.320642471313477,2.379063844680786,-0.5491527915000916
1744883834316629200,5.201629150390625,9.247661590576172,2.4747767448425293,-0.6107679605484009
1744883834333439700,5.218439697265625,9.09392261505127,2.555534601211548,-0.6675975322723389
1744883834350251500,5.23525146484375,8.849854469299316,2.6111676692962646,-0.6041877269744873
1744883834367058700,5.25205859375,8.59202766418457,2.633301258087158,-0.5940182209014893
1744883834383878100,5.268878173828125,8.425128936767578,2.6087749004364014,-0.6035895347595215
1744883834400682500,5.2856826171875,8.38265609741211,2.5986053943634033,-0.5886343717575073
1744883834417495600,5.30249560546875,8.435297966003418,2.5986053943634033,-0.5126622319221497
1744883834434306800,5.319306884765625,8.58784008026123,2.6189444065093994,-0.5084748268127441
1744883834451116800,5.33611669921875,8.769096374511719,2.6057839393615723,-0.5324030518531799
1744883834467928300,5.35292822265625,8.97966480255127,2.6021945476531982,-0.5521438121795654
1744883834484736300,5.369736328125,9.131608963012695,2.6123640537261963,-0.6005984544754028
1744883834501551600,5.386551513671875,9.160323143005371,2.6703901290893555,-0.5856433510780334
1744883834518363400,5.40336328125,9.116056442260742,2.765504837036133,-0.5856433510780334
1744883834535172600,5.420172607421875,8.97248649597168,2.812164783477783,-0.5611169338226318
1744883834551983900,5.43698388671875,8.828917503356934,2.8498518466949463,-0.5700899958610535
1744883834568783000,5.453783203125,8.699705123901367,2.854039192199707,-0.5886343717575073
1744883834585605600,5.470605712890625,8.638090133666992,2.8725836277008057,-0.5599204897880554
1744883834602413000,5.4874130859375,8.642875671386719,2.853440999984741,-0.5455635786056519
1744883834619231200,5.504231201171875,8.70090103149414,2.82951283454895,-0.4983053207397461
1744883834636038400,5.521038330078125,8.73918628692627,2.7726831436157227,-0.48394837975502014
1744883834652849700,5.537849609375,8.739784240722656,2.696112871170044,-0.4989035129547119
1744883834669647400,5.5546474609375,8.68774127960205,2.6673989295959473,-0.5365904569625854
1744883834686472200,5.57147216796875,8.663812637329102,2.6763720512390137,-0.5222335457801819
1744883834703279000,5.588279052734375,8.635098457336426,2.685943365097046,-0.4456632137298584
1744883834720097300,5.60509716796875,8.654241561889648,2.7290141582489014,-0.45523449778556824
1744883834736902000,5.62190185546875,8.691329956054688,2.781656265258789,-0.49351966381073
1744883834753718500,5.638718505859375,8.758329391479492,2.8007988929748535,-0.46480581164360046
1744883834770538200,5.655538330078125,8.86361312866211,2.8109683990478516,-0.45104706287384033
1744883834787338000,5.672337890625,8.93420124053955,2.864208698272705,-0.4654040038585663
1744883834804145400,5.6891455078125,8.967103004455566,2.9078776836395264,-0.49351966381073
1744883834820963300,5.70596337890625,9.092127799987793,2.8935208320617676,-0.40319061279296875
1744883834837761000,5.722760986328125,9.244669914245605,2.884547710418701,-0.39900317788124084
1744883834854578200,5.739578125,9.321240425109863,2.8660032749176025,-0.4133601188659668
1744883834871395600,5.7563955078125,9.336195945739746,2.8420751094818115,-0.4091726839542389
1744883834888191200,5.773191162109375,9.250054359436035,2.8277182579040527,-0.4133601188659668
1744883834905021200,5.790021240234375,9.107083320617676,2.8175487518310547,-0.45164528489112854
1744883834921826300,5.806826416015625,9.001798629760742,2.812164783477783,-0.4175475537776947
1744883834938620400,5.823620361328125,8.997013092041016,2.812164783477783,-0.4701896607875824
1744883834955451400,5.840451416015625,9.107083320617676,2.788834810256958,-0.4707878530025482
1744883834972258800,5.8572587890625,9.193224906921387,2.775076150894165,-0.4660021960735321
1744883834989070300,5.8740703125,9.193224906921387,2.736790895462036,-0.4899304509162903
1744883835005880600,5.890880615234375,9.09811019897461,2.726621389389038,-0.4612165689468384
1744883835022692900,5.90769287109375,8.906683921813965,2.744567632675171,-0.4654040038585663
1744883835039502800,5.9245029296875,8.796614646911621,2.7726831436157227,-0.48394837975502014
1744883835056314400,5.941314453125,8.734400749206543,2.806182861328125,-0.48394837975502014
1744883835073110500,5.958110595703125,8.758329391479492,2.815753936767578,-0.46480581164360046
1744883835089936400,5.974936279296875,8.868398666381836,2.816352367401123,-0.4462614357471466
1744883835106747100,5.9917470703125,8.973084449768066,2.806781053543091,-0.4414757788181305
1744883835123558400,6.008558349609375,9.107083320617676,2.7936203479766846,-0.4372883439064026
1744883835140369200,6.025369140625,9.20279598236084,2.803191661834717,-0.40378883481025696
1744883835157180700,6.0421806640625,9.231510162353516,2.789433002471924,-0.4091726839542389
1744883835173991200,6.0589912109375,9.197412490844727,2.8223342895507812,-0.4325026869773865
1744883835190802400,6.075802490234375,9.126225471496582,2.827120065689087,-0.42293140292167664
1744883835207615700,6.09261572265625,9.10229778289795,2.84087872505188,-0.389431893825531
1744883835224421400,6.10942138671875,9.09691333770752,2.8552355766296387,-0.40319061279296875
1744883835241238300,6.12623828125,9.121439933776855,2.8223342895507812,-0.42293140292167664
1744883835258046700,6.143046630859375,9.154939651489258,2.803191661834717,-0.4468596279621124
1744883835274857200,6.159857177734375,9.164510726928711,2.7601208686828613,-0.45643091201782227
1744883835291668700,6.176668701171875,9.150154113769531,2.751147747039795,-0.4899304509162903
1744883835308466400,6.193466552734375,9.159725189208984,2.765504837036133,-0.4995017349720001
1744883835325290800,6.210290771484375,9.178269386291504,2.7798616886138916,-0.5042873620986938
1744883835342101800,6.227101806640625,9.20279598236084,2.775076150894165,-0.494716078042984
1744883835358903800,6.24390380859375,9.235696792602539,2.775674343109131,-0.5282155871391296
1744883835375723300,6.26072314453125,9.273982048034668,2.7661030292510986,-0.5240281820297241
1744883835392534800,6.27753466796875,9.326624870300293,2.7565317153930664,-0.5144568681716919
1744883835409345500,6.294345458984375,9.336195945739746,2.770888566970825,-0.4570291340351105
1744883835426157000,6.311156982421875,9.384052276611328,2.761915445327759,-0.48574298620224
1744883835442967600,6.327967529296875,9.394221305847168,2.7284159660339355,-0.48095735907554626
1744883835459778300,6.3447783203125,9.41336441040039,2.6805596351623535,-0.4911268353462219
1744883835476590000,6.361590087890625,9.375677108764648,2.675773859024048,-0.4815555512905121
1744883835493401000,6.378401123046875,9.289535522460938,2.6943182945251465,-0.4570291340351105
1744883835510208300,6.395208251953125,9.160323143005371,2.6937201023101807,-0.4570291340351105
1744883835527026400,6.4120263671875,9.079565048217773,2.6979074478149414,-0.45164528489112854
1744883835543820500,6.428820556640625,9.069396018981934,2.6835505962371826,-0.4899304509162903
1744883835560629200,6.445629150390625,9.17467975616455,2.679363250732422,-0.5048855543136597
1744883835577459200,6.462459228515625,9.379266738891602,2.709273338317871,-0.5431707501411438
1744883835594263800,6.479263916015625,9.561120986938477,2.720041036605835,-0.5485545992851257
1744883835611080700,6.496080810546875,9.671191215515137,2.720639228820801,-0.5108676552772522
1744883835627889200,6.51288916015625,9.5324068069458,2.7152554988861084,-0.582054078578949
1744883835644696600,6.529696533203125,9.5802640914917,2.734398126602173,-0.4863412082195282
1744883835661514500,6.546514404296875,9.637691497802734,2.7631118297576904,-0.44327038526535034
1744883835678322000,6.563322021484375,9.603593826293945,2.767897605895996,-0.4815555512905121
1744883835695133400,6.580133544921875,9.541379928588867,2.7864420413970947,-0.5006981492042542
1744883835711943700,6.596943603515625,9.488738059997559,2.7768707275390625,-0.5096712112426758
1744883835728747800,6.613747802734375,9.436694145202637,2.761915445327759,-0.4953143000602722
1744883835745565700,6.630565673828125,9.403194427490234,2.7762725353240967,-0.47617170214653015
1744883835762377500,6.64737744140625,9.355338096618652,2.7565317153930664,-0.4713860750198364
1744883835779188200,6.664188232421875,9.279366493225098,2.737389087677002,-0.45224347710609436
1744883835795999500,6.68099951171875,9.179466247558594,2.7080769538879395,-0.4426721930503845
1744883835812810000,6.69781005859375,9.083752632141113,2.7212376594543457,-0.4181457459926605
1744883835829621500,6.71462158203125,9.050851821899414,2.7355945110321045,-0.3798605799674988
1744883835846432000,6.731431884765625,9.10827922821045,2.740380048751831,-0.31824541091918945
1744883835863243500,6.748243408203125,9.223134994506836,2.7314071655273438,-0.3086741268634796
1744883835880054000,6.765053955078125,9.390034675598145,2.727219581604004,-0.3284149169921875
1744883835896865800,6.78186572265625,9.509077072143555,2.733201742172241,-0.37148571014404297
1744883835913676300,6.79867626953125,9.523433685302734,2.7379872798919678,-0.3762713670730591
1744883835930487800,6.81548779296875,9.466604232788086,2.7182464599609375,-0.36191442608833313
1744883835947298000,6.832298095703125,9.294321060180664,2.7320053577423096,-0.3326023519039154
1744883835964109800,6.84910986328125,9.046664237976074,2.729612350463867,-0.1986042857170105
1744883835980920300,6.86592041015625,8.870193481445312,2.7427730560302734,-0.11186445504426956
1744883835997732000,6.882732177734375,8.851649284362793,2.746960401535034,-0.09272187948226929
1744883836014535700,6.89953564453125,9.027522087097168,2.7864420413970947,-0.13639089465141296
1744883836031357200,6.916357177734375,9.284749984741211,2.827120065689087,-0.23210379481315613
1744883836048164400,6.933164306640625,9.517452239990234,2.87198543548584,-0.39960137009620667
1744883836064962800,6.949962890625,9.626325607299805,2.8492536544799805,-0.5527420043945312
1744883836081786600,6.96678662109375,9.57906723022461,2.792423963546753,-0.6149554252624512
1744883836098589400,6.98358935546875,9.473783493041992,2.7726831436157227,-0.6436693072319031
1744883836115393800,7.000393798828125,9.430712699890137,2.782254457473755,-0.6675975322723389
1744883836132220000,7.017219970703125,9.511469841003418,2.830111026763916,-0.6819544434547424
1744883836149030700,7.03403076171875,9.497113227844238,2.8348965644836426,-0.638883650302887
1744883836165840100,7.050840087890625,9.488140106201172,2.791825771331787,-0.6197410821914673
1744883836182652700,7.067652587890625,9.445667266845703,2.7385854721069336,-0.6293123364448547
1744883836199464200,7.084464111328125,9.327820777893066,2.6327030658721924,-0.5629115104675293
1744883836216274400,7.1012744140625,9.160921096801758,2.569293260574341,-0.5479564070701599
1744883836233086200,7.118086181640625,9.023334503173828,2.5399811267852783,-0.4953143000602722
1744883836249896700,7.134896728515625,8.865407943725586,2.581855535507202,-0.4707878530025482
1744883836266705000,7.151704833984375,8.841479301452637,2.5914268493652344,-0.4468596279621124
1744883836283522000,7.16852197265625,8.96530818939209,2.6015963554382324,-0.4660021960735321
1744883836300320300,7.1853203125,9.251849174499512,2.60339093208313,-0.5006981492042542
1744883836317140700,7.202140625,9.647860527038574,2.6009981632232666,-0.5491527915000916
1744883836333952300,7.2189521484375,10.01456069946289,2.66560435295105,-0.6071787476539612
1744883836350763000,7.235762939453125,10.305289268493652,2.733799934387207,-0.607776939868927
1744883836367571000,7.252571044921875,10.424331665039062,2.7774689197540283,-0.5551348328590393
1744883836384382500,7.269382568359375,10.443474769592285,2.8109683990478516,-0.5647061467170715
1744883836401201700,7.28620166015625,10.29452133178711,2.8582265377044678,-0.597607433795929
1744883836418006800,7.3030068359375,10.055238723754883,2.9048867225646973,-0.6065805554389954
1744883836434818300,7.319818359375,9.821340560913086,2.9796624183654785,-0.5240281820297241
1744883836451628800,7.33662890625,9.610772132873535,3.049652576446533,-0.4468596279621124
1744883836468417800,7.353417724609375,9.391828536987305,2.967698335647583,-0.494716078042984
1744883836485251300,7.370251220703125,9.150154113769531,2.7702903747558594,-0.5138586759567261
1744883836502058800,7.387058837890625,8.923434257507324,2.5052852630615234,-0.42352959513664246
1744883836518863000,7.403863037109375,8.796614646911621,2.3270199298858643,-0.33798620104789734
1744883836535684400,7.420684326171875,8.777471542358398,2.2749760150909424,-0.4576273262500763
1744883836552494800,7.437494873046875,8.834300994873047,2.2995026111602783,-0.47198426723480225
1744883836569306600,7.454306640625,9.040083885192871,2.3096721172332764,-0.41515472531318665
1744883836586116900,7.471116943359375,9.2919282913208,2.407179594039917,-0.4630111753940582
1744883836602925300,7.48792529296875,9.54377269744873,2.4807589054107666,-0.5545366406440735
1744883836619742500,7.504742431640625,9.685547828674316,2.5734808444976807,-0.7070791125297546
1744883836636547800,7.5215478515625,9.608379364013672,2.620738983154297,-0.7304090857505798
1744883836653350700,7.5383505859375,9.389435768127441,2.6668007373809814,-0.5964110493659973
1744883836670170400,7.55517041015625,9.151350021362305,2.7074787616729736,-0.3900300860404968
1744883836686979800,7.571979736328125,8.94556713104248,2.7535407543182373,-0.31764721870422363
1744883836703800000,7.588800048828125,8.878568649291992,2.7672994136810303,-0.3026920557022095
1744883836720603400,7.605603271484375,8.979066848754883,2.7397818565368652,-0.389431893825531
1744883836737418200,7.622418212890625,9.245866775512695,2.6799614429473877,-0.5431707501411438
1744883836754222000,7.63922216796875,9.613164901733398,2.6632115840911865,-0.6681957244873047
1744883836771029200,7.656029296875,9.990034103393555,2.6943182945251465,-0.7172485589981079
1744883836787849200,7.67284912109375,10.232906341552734,2.7248268127441406,-0.755533754825592
1744883836804657700,7.68965771484375,10.308877944946289,2.7732813358306885,-0.784247636795044
1744883836821471700,7.7064716796875,10.14616584777832,2.8013970851898193,-0.8171489238739014
1744883836838282200,7.7232822265625,9.860223770141602,2.8085756301879883,-0.7256234884262085
1744883836855096600,7.7400966796875,9.516854286193848,2.80558443069458,-0.5479564070701599
1744883836871892000,7.75689208984375,9.22134017944336,2.8181469440460205,-0.4995017349720001
1744883836888703200,7.773703125,9.05862808227539,2.812762975692749,-0.5419743061065674
1744883836905527000,7.790527099609375,9.092127799987793,2.812762975692749,-0.503689169883728
1744883836922334200,7.807334228515625,9.306883811950684,2.823530673980713,-0.4899304509162903
1744883836939149800,7.82414990234375,9.603593826293945,2.782254457473755,-0.47676992416381836
1744883836955962000,7.840962158203125,9.82373332977295,2.71645188331604,-0.4582255482673645
1744883836972771000,7.85777099609375,9.967302322387695,2.674577474594116,-0.5832505226135254
1744883836989581600,7.87458154296875,10.091131210327148,2.7415764331817627,-0.511465847492218
1744883837006393000,7.89139306640625,9.952347755432129,2.788834810256958,-0.43489551544189453
1744883837023203800,7.908203857421875,9.694520950317383,2.7726831436157227,-0.4055834412574768
1744883837040015400,7.925015380859375,9.30748176574707,2.8037898540496826,-0.4426721930503845
1744883837056822800,7.94182275390625,8.910273551940918,2.836092948913574,-0.5318048596382141
1744883837073640000,7.958639892578125,8.62313461303711,2.915654420852661,-0.5497509837150574
1744883837090447600,7.975447509765625,8.422736167907715,2.9665019512176514,-0.486939400434494
1744883837107270700,7.992270751953125,8.35573673248291,2.9665019512176514,-0.43908295035362244
1744883837124070000,8.00906982421875,8.49033260345459,2.919243574142456,-0.41575294733047485
1744883837140881400,8.02588134765625,8.753543853759766,2.8247270584106445,-0.38344982266426086
1744883837157692000,8.04269189453125,9.084351539611816,2.7355945110321045,-0.37028929591178894
1744883837174500400,8.059500244140626,9.381061553955078,2.6608188152313232,-0.39062830805778503
1744883837191317200,8.076317138671875,9.567103385925293,2.6285157203674316,-0.381655216217041
1744883837208125400,8.09312548828125,9.647860527038574,2.733799934387207,-0.3768695592880249
1744883837224936000,8.10993603515625,9.594022750854492,2.843271493911743,-0.34277185797691345
1744883837241747500,8.12674755859375,9.478569030761719,2.9623143672943115,-0.3655036687850952
1744883837258565600,8.143565673828125,9.329017639160156,3.0340991020202637,-0.46061834692955017
1744883837275369500,8.160369384765625,9.203991889953613,3.1004998683929443,-0.5700899958610535
1744883837292183300,8.177183349609376,9.150752067565918,3.1202406883239746,-0.6604190468788147
1744883837308991500,8.193991455078125,9.136395454406738,3.0723843574523926,-0.7082754969596863
1744883837325791700,8.210791748046875,9.156135559082031,3.019742250442505,-0.7417750358581543
1744883837342613200,8.22761328125,9.189635276794434,2.9724838733673096,-0.8189435601234436
1744883837359424300,8.24442431640625,9.247661590576172,2.915654420852661,-0.8141579031944275
1744883837376235800,8.26123583984375,9.319445610046387,2.882154941558838,-0.7286145091056824
1744883837393037300,8.278037353515625,9.378069877624512,2.82951283454895,-0.6095715761184692
1744883837409857500,8.294857421875,9.455238342285156,2.7864420413970947,-0.6005984544754028
1744883837426668000,8.31166796875,9.488738059997559,2.7529425621032715,-0.5862415432929993
1744883837443469000,8.328468994140625,9.507881164550781,2.7535407543182373,-0.5623133182525635
1744883837460290300,8.345290283203125,9.507881164550781,2.781656265258789,-0.519242525100708
1744883837477101800,8.362101806640625,9.483952522277832,2.8145575523376465,-0.44745782017707825
1744883837493912000,8.378912109375,9.378668785095215,2.837887763977051,-0.42831525206565857
1744883837510723600,8.3957236328125,9.278767585754395,2.8516464233398438,-0.4133601188659668
1744883837527534000,8.4125341796875,9.211769104003906,2.851048231124878,-0.4133601188659668
1744883837544329700,8.429329833984376,9.20698356628418,2.851048231124878,-0.40378883481025696
1744883837561159700,8.44615966796875,9.283554077148438,2.846860647201538,-0.37028929591178894
1744883837577967900,8.4629677734375,9.393623352050781,2.833101987838745,-0.3613162338733673
1744883837594779000,8.47977880859375,9.5324068069458,2.819343328475952,-0.3762713670730591
1744883837611589000,8.496589111328126,9.656235694885254,2.820539712905884,-0.39062830805778503
1744883837628400400,8.513400390625,9.742377281188965,2.806182861328125,-0.38644084334373474
1744883837645212000,8.5302119140625,9.78544807434082,2.7972097396850586,-0.4103690981864929
1744883837662022400,8.5470224609375,9.823135375976562,2.806781053543091,-0.4295116662979126
1744883837678822700,8.56382275390625,9.827920913696289,2.8217360973358154,-0.47258245944976807
1744883837695644400,8.58064453125,9.837491989135742,2.7690939903259277,-0.4773681163787842
1744883837712443000,8.59744287109375,9.828518867492676,2.6979074478149414,-0.5539384484291077
1744883837729266400,8.614266357421876,9.756733894348145,2.678765058517456,-0.6352944374084473
1744883837746065200,8.631065185546875,9.571290969848633,2.6434707641601562,-0.534795880317688
1744883837762888400,8.647888427734374,9.327820777893066,2.6608188152313232,-0.44805604219436646
1744883837779700000,8.664699951171874,9.064610481262207,2.702693223953247,-0.4899304509162903
1744883837796510500,8.681510498046874,8.935996055603027,2.682952404022217,-0.4899304509162903
1744883837813322000,8.698322021484374,8.974281311035156,2.668595552444458,-0.4612165689468384
1744883837830132500,8.715132568359374,9.165108680725098,2.6841487884521484,-0.4666004180908203
1744883837846944000,8.731944091796874,9.442078590393066,2.7284159660339355,-0.41934216022491455
1744883837863754500,8.74875439453125,9.561120986938477,2.781656265258789,-0.39062830805778503
1744883837880566300,8.765566162109375,9.604191780090332,2.8241288661956787,-0.33798620104789734
1744883837897376800,8.782376708984375,9.45583724975586,2.8755745887756348,-0.27038896083831787
1744883837914185000,8.79918505859375,9.302098274230957,2.932404041290283,-0.29371899366378784
1744883837931001900,8.816001953125,9.234500885009766,2.9898319244384766,-0.35054850578308105
1744883837947810000,8.83281005859375,9.276973724365234,3.0281169414520264,-0.364905446767807
1744883837964617700,8.84961767578125,9.410971641540527,3.0388846397399902,-0.3655036687850952
1744883837981435100,8.86643505859375,9.535996437072754,2.929413080215454,-0.4043870270252228
1744883837998242800,8.883242919921875,9.622138023376465,2.915654420852661,-0.3852444589138031
1744883838015052000,8.900052001953124,9.449854850769043,2.8767709732055664,-0.44745782017707825
1744883838031867000,8.916866943359375,9.183652877807617,2.83669114112854,-0.389431893825531
1744883838048664000,8.9336640625,8.86361312866211,2.8396823406219482,-0.40259242057800293
1744883838065472500,8.950472412109375,8.724231719970703,2.8869404792785645,-0.4450650215148926
1744883838082301400,8.967301513671876,8.85763168334961,2.926422119140625,-0.48873403668403625
1744883838099109000,8.984109130859375,9.053244590759277,2.9461629390716553,-0.46480581164360046
1744883838115920400,9.00092041015625,9.244669914245605,2.937189817428589,-0.3607180118560791
1744883838132731000,9.01773095703125,9.2255277633667,2.9515466690063477,-0.34636107087135315
1744883838149544200,9.034544189453126,9.125029563903809,2.9796624183654785,-0.37926238775253296
1744883838166351000,9.05135107421875,9.20578670501709,3.0418758392333984,-0.3074777126312256
1744883838183164700,9.06816455078125,9.31047248840332,3.0759735107421875,-0.3361915946006775
1744883838199975400,9.084975341796875,9.520442962646484,3.077768087387085,-0.37507495284080505
1744883838216786400,9.101786376953125,9.759127616882324,3.0454649925231934,-0.4043870270252228
1744883838233597200,9.11859716796875,9.797411918640137,2.988635540008545,-0.4618147611618042
1744883838250408700,9.13540869140625,9.65503978729248,2.916252613067627,-0.47617170214653015
1744883838267214800,9.15221484375,9.369096755981445,2.8666014671325684,-0.4660021960735321
1744883838284034800,9.169034912109375,9.144171714782715,2.884547710418701,-0.5084748268127441
1744883838300841200,9.18584130859375,9.053244590759277,2.9180471897125244,-0.5030909776687622
1744883838317653000,9.202653076171876,9.115457534790039,2.913261651992798,-0.5132604837417603
1744883838334460200,9.219460205078125,9.224929809570312,2.8761727809906006,-0.5467599630355835
1744883838351277800,9.23627783203125,9.297910690307617,2.823530673980713,-0.4612165689468384
1744883838368082000,9.25308203125,9.308079719543457,2.7846474647521973,-0.3756731450557709
1744883838384897000,9.26989697265625,9.298508644104004,2.8085756301879883,-0.33738797903060913
1744883838401710600,9.286710693359375,9.236295700073242,2.827120065689087,-0.29431718587875366
1744883838418513000,9.303512939453125,9.121439933776855,2.864208698272705,-0.26500511169433594
1744883838435329800,9.320329833984376,9.021539688110352,2.892324447631836,-0.2027917206287384
1744883838452141000,9.33714111328125,8.887541770935059,2.89172625541687,-0.22612173855304718
1744883838468951300,9.353951416015626,8.882157325744629,2.9204399585723877,-0.3068794906139374
1744883838485762800,9.3707626953125,8.995817184448242,2.974278450012207,-0.373878538608551
1744883838502570500,9.387570556640625,9.244071960449219,2.999403238296509,-0.3936193287372589
1744883838519374800,9.404374755859376,9.496515274047852,3.0011978149414062,-0.42771705985069275
1744883838536195300,9.4211953125,9.783653259277344,2.950350284576416,-0.4289134442806244
1744883838553007000,9.438007080078124,9.994221687316895,2.9036903381347656,-0.4486542344093323
1744883838569823700,9.45482373046875,10.00857925415039,2.9036903381347656,-0.47258245944976807
1744883838586629000,9.471629150390624,9.999007225036621,2.9036903381347656,-0.4247260093688965
1744883838603435800,9.488435791015625,9.903892517089844,2.8929226398468018,-0.33858439326286316
1744883838620243700,9.50524365234375,9.818947792053223,2.854039192199707,-0.2955136001110077
1744883838637061400,9.522061279296874,9.747760772705078,2.80558443069458,-0.30508488416671753
1744883838653873200,9.538873046875,9.619147300720215,2.733799934387207,-0.33379876613616943
1744883838670684700,9.5556845703125,9.504889488220215,2.699103832244873,-0.30987054109573364
1744883838687495000,9.572494873046875,9.386445045471191,2.6697919368743896,-0.2476571500301361
1744883838704302600,9.589302490234376,9.257232666015625,2.6733810901641846,-0.2231307178735733
1744883838721120500,9.60612060546875,9.229117393493652,2.6255247592926025,-0.23270200192928314
1744883838737927700,9.622927734375,9.19561767578125,2.6392834186553955,-0.17527425289154053
1744883838754723000,9.63972314453125,9.133403778076172,2.6398816108703613,-0.2709871530532837
1744883838771543300,9.656543212890625,9.147162437438965,2.682354211807251,-0.23748764395713806
1744883838788361200,9.673361328125,9.147162437438965,2.7254250049591064,-0.20338992774486542
1744883838805181200,9.69018115234375,9.136993408203125,2.7690939903259277,-0.275174617767334
1744883838821983200,9.706983154296875,9.179466247558594,2.7696921825408936,-0.3613162338733673
1744883838838782200,9.7237822265625,9.232108116149902,2.7553353309631348,-0.3086741268634796
1744883838855608000,9.740608154296876,9.317651748657227,2.789433002471924,-0.3565305769443512
1744883838872403000,9.75740283203125,9.369695663452148,2.8139593601226807,-0.4043870270252228
1744883838889227500,9.7742275390625,9.451051712036133,2.833700180053711,-0.3852444589138031
1744883838906037800,9.791037841796875,9.517452239990234,2.8384859561920166,-0.3756731450557709
1744883838922849300,9.807849365234375,9.57487964630127,2.8151557445526123,-0.39541393518447876
1744883838939656200,9.82465625,9.617950439453125,2.80558443069458,-0.4049852192401886
1744883838956475000,9.841474853515624,9.613762855529785,2.7864420413970947,-0.36191442608833313
1744883838973269000,9.85826904296875,9.542576789855957,2.7667012214660645,-0.3188436031341553
1744883838990093300,9.87509326171875,9.437292098999023,2.770888566970825,-0.2997010350227356
1744883839006893000,9.89189306640625,9.385248184204102,2.7463622093200684,-0.3284149169921875
1744883839023715300,9.90871533203125,9.394820213317871,2.7278177738189697,-0.3332005441188812
1744883839040522500,9.9255224609375,9.45763111114502,2.675175666809082,-0.31465616822242737
1744883839057340700,9.942340576171874,9.567103385925293,2.6566312313079834,-0.3290131092071533
1744883839074162200,9.959162109375,9.596415519714355,2.6662025451660156,-0.2763710021972656
1744883839090939000,9.97593896484375,9.495916366577148,2.6703901290893555,-0.23808585107326508
1744883839107758000,9.992758056640625,9.31884765625,2.702693223953247,-0.2709871530532837
1744883839124578300,10.009578369140625,9.175278663635254,2.740380048751831,-0.275174617767334
1744883839141394700,10.026394775390624,9.150752067565918,2.7978079319000244,-0.2841476798057556
1744883839158203600,10.04320361328125,9.246464729309082,2.7984061241149902,-0.29431718587875366
1744883839175014100,10.06001416015625,9.41336441040039,2.799004316329956,-0.28534409403800964
1744883839191825400,10.076825439453126,9.542576789855957,2.7667012214660645,-0.3236292600631714
1744883839208622800,10.093622802734375,9.604789733886719,2.733201742172241,-0.33858439326286316
1744883839225447700,10.11044775390625,9.633503913879395,2.7385854721069336,-0.36729827523231506
1744883839242255000,10.127255126953125,9.594620704650879,2.757728099822998,-0.4049852192401886
1744883839259072500,10.144072509765625,9.527621269226074,2.785843849182129,-0.37148571014404297
1744883839275880200,10.160880126953124,9.456435203552246,2.785245656967163,-0.3523431420326233
1744883839292692000,10.17769189453125,9.384052276611328,2.809173822402954,-0.3565305769443512
1744883839309500400,10.19450048828125,9.355338096618652,2.8283164501190186,-0.39481574296951294
1744883839326313700,10.211313720703124,9.379266738891602,2.8139593601226807,-0.3517449200153351
1744883839343124000,10.2281240234375,9.41336441040039,2.7846474647521973,-0.28534409403800964
1744883839359935700,10.244935791015624,9.413962364196777,2.7320053577423096,-0.29012975096702576
1744883839376745200,10.2617451171875,9.31884765625,2.7080769538879395,-0.2757728099822998
1744883839393558800,10.278558837890625,9.21834945678711,2.7116663455963135,-0.26620152592658997
1744883839410368300,10.2953681640625,9.175278663635254,2.7355945110321045,-0.26081767678260803
1744883839427179500,10.312179443359375,9.18006420135498,2.7499513626098633,-0.24167509377002716
1744883839443977200,10.328977294921875,9.265607833862305,2.7553353309631348,-0.275174617767334
1744883839460801800,10.3458017578125,9.34277629852295,2.7314071655273438,-0.26141586899757385
1744883839477612000,10.362612060546875,9.395418167114258,2.7320053577423096,-0.23270200192928314
1744883839494420500,10.37942041015625,9.413962364196777,2.736790895462036,-0.2566302418708801
1744883839511237600,10.396237548828125,9.395418167114258,2.736790895462036,-0.24227328598499298
1744883839528045600,10.413045654296875,9.40917682647705,2.779263496398926,-0.1944168359041214
1744883839544844300,10.42984423828125,9.375677108764648,2.7840490341186523,-0.2183450609445572
1744883839561664800,10.446664794921874,9.346963882446289,2.7840490341186523,-0.23270200192928314
1744883839578468600,10.463468505859375,9.390034675598145,2.7936203479766846,-0.18484555184841156
1744883839595289900,10.480289794921875,9.437891006469727,2.789433002471924,-0.18005990982055664
1744883839612100400,10.497100341796875,9.476176261901855,2.7798616886138916,-0.15672987699508667
1744883839628898800,10.51389892578125,9.490532875061035,2.765504837036133,-0.20458634197711945
1744883839645722400,10.530722412109375,9.476176261901855,2.7846474647521973,-0.2183450609445572
1744883839662534100,10.5475341796875,9.46181869506836,2.7702903747558594,-0.18005990982055664
1744883839679344600,10.5643447265625,9.46181869506836,2.775076150894165,-0.1944168359041214
1744883839696156000,10.581156005859375,9.467203140258789,2.765504837036133,-0.137587308883667
1744883839712966400,10.59796630859375,9.372088432312012,2.717050075531006,-0.16151553392410278
1744883839729778200,10.614778076171875,9.309874534606934,2.693121910095215,-0.18005990982055664
1744883839746588700,10.631588623046875,9.33858871459961,2.6596224308013916,-0.17587246000766754
1744883839763400000,10.64839990234375,9.401400566101074,2.6356940269470215,-0.14715859293937683
1744883839780208000,10.6652080078125,9.453444480895996,2.6362924575805664,-0.19980068504810333
1744883839797022500,10.6820224609375,9.46301555633545,2.6458635330200195,-0.22851456701755524
1744883839813832700,10.698832763671875,9.434301376342773,2.641077995300293,-0.1663011759519577
1744883839830644200,10.715644287109376,9.400801658630371,2.6739792823791504,-0.12801600992679596
1744883839847441700,10.732441650390625,9.42473030090332,2.6835505962371826,-0.15672987699508667
1744883839864263000,10.749262939453125,9.52941608428955,2.703291416168213,-0.15672987699508667
1744883839881079800,10.766079833984374,9.634700775146484,2.713460922241211,-0.14775680005550385
1744883839897875000,10.782875,9.720842361450195,2.7044878005981445,-0.15254244208335876
1744883839914695700,10.79969580078125,9.682557106018066,2.6805596351623535,-0.1381855010986328
1744883839931513600,10.816513671875,9.510871887207031,2.6554348468780518,-0.1094716340303421
1744883839948320800,10.83332080078125,9.305686950683594,2.6973092555999756,-0.0849452018737793
1744883839965132300,10.85013232421875,9.114261627197266,2.710469961166382,-0.07956135272979736
1744883839981942800,10.86694287109375,9.042476654052734,2.7433712482452393,-0.07896314561367035
1744883839998741200,10.8837412109375,9.123832702636719,2.696112871170044,-0.08434699475765228
1744883840015564800,10.900564697265626,9.286544799804688,2.659024238586426,-0.12323036789894104
1744883840032376000,10.9173759765625,9.491728782653809,2.6554348468780518,-0.16151553392410278
1744883840049187000,10.93418701171875,9.664012908935547,2.6470601558685303,-0.16689938306808472
1744883840065998600,10.95099853515625,9.754341125488281,2.651845693588257,-0.12921242415905
1744883840082808800,10.967808837890624,9.754940032958984,2.637488842010498,-0.09571290761232376
1744883840099620400,10.984620361328124,9.640084266662598,2.6608188152313232,-0.1094716340303421
1744883840116431000,11.00143115234375,9.46301555633545,2.6937201023101807,-0.11844471842050552
1744883840133242000,11.0182421875,9.290732383728027,2.7212376594543457,-0.09391828626394272
1744883840150053000,11.03505322265625,9.233304023742676,2.754138946533203,-0.07956135272979736
1744883840166864400,11.051864501953125,9.209376335144043,2.7637102603912354,-0.10827522724866867
1744883840183675000,11.0686748046875,9.290732383728027,2.7499513626098633,-0.1417747437953949
1744883840200486700,11.085486572265625,9.390632629394531,2.740978240966797,-0.14656038582324982
1744883840217297000,11.102296875,9.45763111114502,2.7080769538879395,-0.1950150430202484
1744883840234108400,11.1191083984375,9.515059471130371,2.675175666809082,-0.24287149310112
1744883840250919000,11.1359189453125,9.548559188842773,2.6368906497955322,-0.243469700217247
1744883840267730700,11.152730712890625,9.534201622009277,2.641676187515259,-0.25244277715682983
1744883840284537600,11.16953759765625,9.476774215698242,2.6560330390930176,-0.25244277715682983
1744883840301355500,11.18635546875,9.348159790039062,2.6835505962371826,-0.19920247793197632
1744883840318163200,11.2031630859375,9.290732383728027,2.682952404022217,-0.15613168478012085
1744883840334974500,11.219974365234375,9.257232666015625,2.7116663455963135,-0.20398813486099243
1744883840351784700,11.23678466796875,9.266803741455078,2.7212376594543457,-0.1944168359041214
1744883840368574000,11.253573974609376,9.31884765625,2.740978240966797,-0.20398813486099243
1744883840385410300,11.270410400390626,9.371489524841309,2.7457640171051025,-0.22791635990142822
1744883840402218500,11.287218505859375,9.42353343963623,2.736790895462036,-0.251844584941864
1744883840419026000,11.30402587890625,9.476176261901855,2.7421748638153076,-0.2709871530532837
1744883840435843600,11.320843505859376,9.500103950500488,2.737389087677002,-0.23330020904541016
1744883840452651000,11.337651123046875,9.54796028137207,2.7421748638153076,-0.22851456701755524
1744883840469465600,11.354465576171876,9.581459999084473,2.7565317153930664,-0.24287149310112
1744883840486270200,11.371270263671875,9.519247055053711,2.7278177738189697,-0.23330020904541016
1744883840503084800,11.388084716796875,9.433703422546387,2.727219581604004,-0.22851456701755524
1744883840519894300,11.404894287109375,9.328418731689453,2.7314071655273438,-0.22791635990142822
1744883840536707800,11.421707763671876,9.279964447021484,2.7553353309631348,-0.27038896083831787
1744883840553517000,11.43851708984375,9.260822296142578,2.7553353309631348,-0.275174617767334
1744883840570326000,11.455325927734375,9.33739185333252,2.7320053577423096,-0.2997010350227356
1744883840587141600,11.4721416015625,9.418747901916504,2.7086751461029053,-0.3523431420326233
1744883840603939800,11.48893994140625,9.538389205932617,2.6901309490203857,-0.3481557071208954
1744883840620759300,11.50575927734375,9.633503913879395,2.695514678955078,-0.33858439326286316
1744883840637572600,11.522572509765626,9.667003631591797,2.6811578273773193,-0.3529413342475891
1744883840654377700,11.539377685546874,9.624530792236328,2.671586513519287,-0.3242274820804596
1744883840671200300,11.5562001953125,9.528818130493164,2.699702262878418,-0.3433700501918793
1744883840688005000,11.573005126953126,9.418747901916504,2.7326035499572754,-0.34277185797691345
1744883840704813800,11.589813720703125,9.327820777893066,2.751147747039795,-0.3188436031341553
1744883840721630200,11.606630126953124,9.227322578430176,2.750549554824829,-0.3517449200153351
1744883840738417700,11.623417724609375,9.141180992126465,2.740978240966797,-0.3900300860404968
1744883840755263000,11.640262939453125,9.098708152770996,2.71645188331604,-0.3852444589138031
1744883840772047600,11.657047607421875,9.09392261505127,2.717050075531006,-0.4133601188659668
1744883840788859400,11.673859375,9.1986083984375,2.7361927032470703,-0.4139583110809326
1744883840805679600,11.6906796875,9.356534957885742,2.7182464599609375,-0.36191442608833313
1744883840822496500,11.70749658203125,9.528818130493164,2.68534517288208,-0.3529413342475891
1744883840839305000,11.724304931640624,9.652647018432617,2.6626133918762207,-0.4007977843284607
1744883840856115200,11.741115234375,9.695717811584473,2.667997360229492,-0.4534398913383484
1744883840872914000,11.757913818359375,9.66221809387207,2.7008986473083496,-0.4103690981864929
1744883840889737500,11.774737548828124,9.57607650756836,2.7284159660339355,-0.3433700501918793
1744883840906549000,11.791549072265624,9.4660062789917,2.775674343109131,-0.3475574851036072
1744883840923360500,11.808360595703125,9.436694145202637,2.794816732406616,-0.36191442608833313
1744883840940167200,11.825167236328125,9.408578872680664,2.7900311946868896,-0.37088751792907715
1744883840956984000,11.841984130859375,9.384052276611328,2.8043880462646484,-0.3852444589138031
1744883840973789000,11.858788818359375,9.375079154968262,2.770888566970825,-0.41874396800994873
1744883840990603500,11.875603515625,9.32722282409668,2.7517459392547607,-0.4043870270252228
1744883841007415000,11.8924150390625,9.246464729309082,2.727219581604004,-0.4426721930503845
1744883841024219100,11.90921923828125,9.1986083984375,2.7080769538879395,-0.45224347710609436
1744883841041037000,11.926037109375,9.227322578430176,2.727219581604004,-0.4043870270252228
1744883841057850600,11.9428505859375,9.342177391052246,2.7038896083831787,-0.41934216022491455
1744883841074666200,11.959666259765624,9.494720458984375,2.709871530532837,-0.44327038526535034
1744883841091459600,11.97645947265625,9.613762855529785,2.696112871170044,-0.4630111753940582
1744883841108277000,11.993277099609376,9.66221809387207,2.6865415573120117,-0.4534398913383484
1744883841125091600,12.010091552734375,9.589835166931152,2.729612350463867,-0.4624129831790924
1744883841141902600,12.026902587890625,9.489336013793945,2.7667012214660645,-0.4336991012096405
1744883841158701600,12.04370166015625,9.374481201171875,2.7900311946868896,-0.4331009089946747
1744883841175512300,12.06051220703125,9.32183837890625,2.8037898540496826,-0.4091726839542389
1744883841192335400,12.07733544921875,9.284152030944824,2.775076150894165,-0.3852444589138031
1744883841209134800,12.094134765625,9.241081237792969,2.779263496398926,-0.37088751792907715
1744883841225957400,12.110957275390625,9.256035804748535,2.760719060897827,-0.3756731450557709
1744883841242769200,12.12776904296875,9.312865257263184,2.765504837036133,-0.380458801984787
1744883841259578400,12.144578369140625,9.384650230407715,2.7421748638153076,-0.3810569941997528
1744883841276391200,12.16139111328125,9.547362327575684,2.7146573066711426,-0.38644084334373474
1744883841293201400,12.178201416015625,9.729216575622559,2.696112871170044,-0.39122650027275085
1744883841310015000,12.195014892578126,9.857831001281738,2.706282377243042,-0.3678964674472809
1744883841326823700,12.21182373046875,9.809974670410156,2.7110681533813477,-0.35832518339157104
1744883841343635200,12.22863525390625,9.57607650756836,2.7284159660339355,-0.3242274820804596
1744883841360445700,12.24544580078125,9.203991889953613,2.77866530418396,-0.18903298676013947
1744883841377257200,12.26225732421875,8.927022933959961,2.848057270050049,-0.03529413416981697
1744883841394067700,12.279067626953125,8.812167167663574,2.9282166957855225,0.02273181453347206
1744883841410879200,12.295879150390626,8.888139724731445,2.9623143672943115,-0.04426721855998039
1744883841427678700,12.3126787109375,9.09811019897461,2.892324447631836,-0.1501496136188507
1744883841444498000,12.329497802734375,9.336195945739746,2.8277182579040527,-0.37088751792907715
1744883841461314800,12.346314697265624,9.512666702270508,2.758326292037964,-0.6149554252624512
1744883841478123300,12.363123291015626,9.631111145019531,2.7314071655273438,-0.8063812255859375
1744883841494933800,12.379933837890626,9.66819953918457,2.7942185401916504,-0.9068797826766968
1744883841511745300,12.396745361328126,9.739984512329102,2.770888566970825,-0.9355936646461487
1744883841528565000,12.41356494140625,9.811769485473633,2.775674343109131,-0.859621524810791
1744883841545358000,12.430358154296876,9.850652694702148,2.7846474647521973,-0.7591229677200317
1744883841562177500,12.447177490234376,9.851848602294922,2.726621389389038,-0.6161518096923828
1744883841578989300,12.4639892578125,9.737591743469238,2.7349963188171387,-0.49651068449020386
1744883841595799600,12.480799560546876,9.55633544921875,2.7529425621032715,-0.4336991012096405
1744883841612611300,12.497611328125,9.361320495605469,2.7415764331817627,-0.34277185797691345
1744883841629421800,12.514421875,9.160921096801758,2.7260231971740723,-0.32303106784820557
1744883841646236200,12.531236083984375,9.0514497756958,2.682354211807251,-0.2799602448940277
1744883841663043800,12.5480439453125,9.075976371765137,2.6494529247283936,-0.3038884699344635
1744883841679855400,12.56485546875,9.186046600341797,2.6111676692962646,-0.2805584669113159
1744883841696662500,12.58166259765625,9.31047248840332,2.616551637649536,-0.25244277715682983
1744883841713480700,12.598480712890625,9.396614074707031,2.6123640537261963,-0.23330020904541016
1744883841730287900,12.615287841796874,9.401400566101074,2.6315066814422607,-0.1902294009923935
1744883841747102700,12.632102783203125,9.319445610046387,2.6979074478149414,-0.18963119387626648
1744883841763906600,12.648906494140626,9.251849174499512,2.7690939903259277,-0.18484555184841156
1744883841780721700,12.6657216796875,9.265607833862305,2.8456642627716064,-0.12681959569454193
1744883841797531600,12.68253173828125,9.294321060180664,2.8600213527679443,-0.11246266216039658
1744883841814340400,12.69934033203125,9.389435768127441,2.8516464233398438,-0.2273181527853012
1744883841831157000,12.716156982421875,9.470193862915039,2.833101987838745,-0.2949153780937195
1744883841847965400,12.73296533203125,9.518050193786621,2.8145575523376465,-0.357128769159317
1744883841864776000,12.74977587890625,9.479764938354492,2.819343328475952,-0.380458801984787
1744883841881587500,12.76658740234375,9.440881729125977,2.867199659347534,-0.4091726839542389
1744883841898398000,12.78339794921875,9.354142189025879,2.9001009464263916,-0.48035913705825806
1744883841915209500,12.80020947265625,9.215956687927246,2.9042885303497314,-0.42293140292167664
1744883841932020200,12.817020263671875,9.077771186828613,2.9551360607147217,-0.3074777126312256
1744883841948815000,12.833815185546875,8.920442581176758,2.953939437866211,-0.2021935135126114
1744883841965645800,12.850645751953126,8.854640007019043,2.905484914779663,-0.12083754688501358
1744883841982453500,12.86745361328125,8.759525299072266,2.8761727809906006,-0.13998012244701385
1744883841999264000,12.884263916015625,8.662615776062012,2.9383862018585205,-0.2727817893028259
1744883842016075800,12.90107568359375,8.662017822265625,2.9766714572906494,-0.2967100143432617
1744883842032886000,12.917885986328125,8.763114929199219,2.943171739578247,-0.19202402234077454
1744883842049697500,12.934697509765625,9.053842544555664,2.988635540008545,-0.26440688967704773
1744883842066508000,12.951508056640625,9.430712699890137,2.943171739578247,-0.37028929591178894
1744883842083319600,12.968319580078125,9.775876998901367,2.8588249683380127,-0.3194418251514435
1744883842100130000,12.985130126953125,9.918848037719727,2.8354947566986084,-0.3200400173664093
1744883842116941600,13.001941650390625,10.01575756072998,2.7218358516693115,-0.33499518036842346
1744883842133752000,13.018751953125,10.24487018585205,2.675773859024048,-0.4456632137298584
1744883842150563600,13.0355634765625,10.401599884033203,2.6632115840911865,-0.6418746709823608
1744883842167374000,13.0523740234375,10.27777099609375,2.6524438858032227,-0.5796613097190857
1744883842184185600,13.069185546875,9.957731246948242,2.674577474594116,-0.5688936114311218
1744883842201002200,13.086002197265625,9.632308006286621,2.6638097763061523,-0.6825526356697083
1744883842217807600,13.1028076171875,9.42772102355957,2.6524438858032227,-0.6059823632240295
1744883842234614800,13.11961474609375,9.22433090209961,2.5501506328582764,-0.39541393518447876
1744883842251422000,13.136421875,9.091529846191406,2.581855535507202,-0.17527425289154053
1744883842268240100,13.153240234375,8.934800148010254,2.565704107284546,0.03529413416981697
1744883842285052000,13.170052001953126,8.8109712600708,2.6261229515075684,0.21714866161346436
1744883842301862700,13.186862548828126,8.686544418334961,2.706282377243042,0.28953152894973755
1744883842318660600,13.20366064453125,8.862417221069336,2.803191661834717,0.27038896083831787
1744883842335484700,13.220484619140626,8.927620887756348,2.9282166957855225,0.1657029688358307
1744883842352295700,13.237295654296876,8.996415138244629,3.0113673210144043,-0.1782652884721756
1744883842369105700,13.254105712890626,9.220742225646973,3.0370900630950928,-0.2356930375099182
1744883842385918200,13.270918212890624,9.558728218078613,3.0203404426574707,-0.37028929591178894
1744883842402728200,13.287728271484376,9.730413436889648,2.988635540008545,-0.4905286431312561
1744883842419539700,13.304539794921874,9.954142570495605,2.971287488937378,-0.6394818425178528
1744883842436350200,13.32135009765625,10.012167930603027,2.923431158065796,-0.6011967062950134
1744883842453161500,13.338161376953124,9.93679428100586,2.851048231124878,-0.534795880317688
1744883842469969000,13.354968994140625,9.765707015991211,2.8115665912628174,-0.4863412082195282
1744883842486798600,13.371798583984376,9.537193298339844,2.7672994136810303,-0.4624129831790924
1744883842503594200,13.38859423828125,9.446864128112793,2.7188446521759033,-0.39062830805778503
1744883842520405800,13.40540576171875,9.419346809387207,2.6703901290893555,-0.3002992272377014
1744883842537216000,13.422216064453124,9.477372169494629,2.5986053943634033,-0.31465616822242737
1744883842554027500,13.439027587890624,9.434301376342773,2.56510591506958,-0.33858439326286316
1744883842570838300,13.45583837890625,9.54496955871582,2.4939193725585938,-0.33918261528015137
1744883842587652600,13.472652587890625,9.564111709594727,2.4849462509155273,-0.3439682424068451
1744883842604454000,13.489453857421875,9.592825889587402,2.4945175647735596,-0.3487538993358612
1744883842621275100,13.506275146484375,9.487542152404785,2.5178475379943848,-0.3487538993358612
1744883842638082000,13.52308203125,9.357730865478516,2.5884358882904053,-0.3194418251514435
1744883842654893600,13.5398935546875,9.186046600341797,2.630310297012329,-0.251844584941864
1744883842671704000,13.5567041015625,9.109476089477539,2.6632115840911865,-0.21774685382843018
1744883842688512300,13.57351220703125,9.151947975158691,2.7110681533813477,-0.20338992774486542
1744883842705323000,13.590322998046876,9.275776863098145,2.7457640171051025,-0.2183450609445572
1744883842722141000,13.607140869140625,9.461220741271973,2.7661030292510986,-0.2805584669113159
1744883842738955500,13.62395556640625,9.533005714416504,2.761317253112793,-0.2667997181415558
1744883842755752000,13.640751953125,9.738788604736328,2.7529425621032715,-0.267397940158844
1744883842772557800,13.657557861328126,9.762716293334961,2.743969440460205,-0.2961117923259735
1744883842789382400,13.67438232421875,9.79083251953125,2.734398126602173,-0.3152543902397156
1744883842806192000,13.691192138671875,9.743574142456055,2.724228620529175,-0.28654050827026367
1744883842823000800,13.708000732421874,9.634101867675781,2.7044878005981445,-0.2667997181415558
1744883842839817000,13.72481689453125,9.481559753417969,2.7038896083831787,-0.25244277715682983
1744883842856625700,13.741625732421875,9.337990760803223,2.6835505962371826,-0.2470589429140091
1744883842873432800,13.758432861328124,9.21416187286377,2.668595552444458,-0.2231307178735733
1744883842890251000,13.7752509765625,9.171091079711914,2.682952404022217,-0.23748764395713806
1744883842907055400,13.792055419921875,9.204590797424316,2.692523717880249,-0.26141586899757385
1744883842923871500,13.80887158203125,9.31466007232666,2.678765058517456,-0.2183450609445572
1744883842940681500,13.825681396484375,9.41037368774414,2.650649309158325,-0.2476571500301361
1744883842957491700,13.84249169921875,9.44327449798584,2.6608188152313232,-0.3433700501918793
1744883842974289200,13.8592890625,9.42353343963623,2.713460922241211,-0.357128769159317
1744883842991116500,13.876116455078124,9.399605751037598,2.7517459392547607,-0.3188436031341553
1744883843007924500,13.892924560546875,9.42772102355957,2.7565317153930664,-0.3188436031341553
1744883843024736000,13.909736083984376,9.432506561279297,2.785245656967163,-0.31405797600746155
1744883843041543700,13.926543701171875,9.42772102355957,2.770888566970825,-0.31405797600746155
1744883843058360000,13.943360107421874,9.384650230407715,2.7565317153930664,-0.3756731450557709
1744883843075168300,13.960168212890625,9.322437286376953,2.737389087677002,-0.39960137009620667
1744883843091979800,13.976979736328126,9.279366493225098,2.7415764331817627,-0.4043870270252228
1744883843108780500,13.993780517578125,9.260822296142578,2.751147747039795,-0.3613162338733673
1744883843125599500,14.010599609375,9.275178909301758,2.7559335231781006,-0.36610186100006104
1744883843142414800,14.027414794921874,9.317651748657227,2.7559335231781006,-0.37088751792907715
1744883843159221500,14.044221435546875,9.351150512695312,2.7421748638153076,-0.3852444589138031
1744883843176034600,14.06103466796875,9.399007797241211,2.746960401535034,-0.4001995921134949
1744883843192845800,14.077845703125,9.389435768127441,2.746960401535034,-0.36670008301734924
1744883843209640400,14.094640380859374,9.351150512695312,2.761317253112793,-0.3756731450557709
1744883843226468400,14.11146826171875,9.3457670211792,2.8043880462646484,-0.3900300860404968
1744883843243278300,14.1282783203125,9.379266738891602,2.823530673980713,-0.3852444589138031
1744883843260089900,14.14508984375,9.43190860748291,2.833101987838745,-0.3900300860404968
1744883843276900400,14.161900390625,9.469595909118652,2.833700180053711,-0.42352959513664246
1744883843293712000,14.1787119140625,9.498309135437012,2.8384859561920166,-0.45224347710609436
1744883843310509600,14.195509521484375,9.516854286193848,2.843869686126709,-0.4713860750198364
1744883843327334000,14.212333984375,9.512067794799805,2.853440999984741,-0.5096712112426758
1744883843344143400,14.229143310546876,9.492925643920898,2.8390841484069824,-0.5000999569892883
1744883843360957400,14.24595751953125,9.43609619140625,2.819343328475952,-0.48095735907554626
1744883843377766400,14.262766357421874,9.364909172058105,2.799602508544922,-0.4713860750198364
1744883843394574800,14.279574951171876,9.284152030944824,2.761317253112793,-0.4666004180908203
1744883843411392800,14.296392822265625,9.245866775512695,2.7224340438842773,-0.47617170214653015
1744883843428203300,14.313203369140625,9.298508644104004,2.7086751461029053,-0.4953143000602722
1744883843444995600,14.32999560546875,9.41336441040039,2.6662025451660156,-0.49591249227523804
1744883843461824800,14.34682470703125,9.442078590393066,2.6901309490203857,-0.4289134442806244
1744883843478619600,14.36361962890625,9.394221305847168,2.7188446521759033,-0.48574298620224
1744883843495444000,14.38044384765625,9.403194427490234,2.7900311946868896,-0.42831525206565857
1744883843512254500,14.39725439453125,9.44626522064209,2.833101987838745,-0.37088751792907715
1744883843529052700,14.414052734375,9.674181938171387,2.925823926925659,-0.4378865361213684
1744883843545856000,14.43085595703125,10.007980346679688,2.9659037590026855,-0.47198426723480225
1744883843562688300,14.447688232421875,10.314262390136719,2.9246275424957275,-0.4301098585128784
1744883843579498500,14.46449853515625,10.328619003295898,2.8582265377044678,-0.5353940725326538
1744883843596310000,14.48131005859375,10.41057300567627,2.8007988929748535,-0.43130627274513245
1744883843613120500,14.49812060546875,10.134202003479004,2.7038896083831787,-0.46899324655532837
1744883843629913300,14.514913330078125,9.757332801818848,2.6727828979492188,-0.43968117237091064
1744883843646749000,14.5317490234375,9.19442081451416,2.6835505962371826,-0.380458801984787
1744883843663554000,14.548553955078125,8.759525299072266,2.7050859928131104,-0.3601198196411133
1744883843680364300,14.5653642578125,8.606385231018066,2.761317253112793,-0.34995031356811523
1744883843697176000,14.582176025390625,8.663214683532715,2.833101987838745,-0.2925225794315338
1744883843713986600,14.598986572265625,8.743971824645996,2.9006991386413574,-0.27816563844680786
1744883843730797800,14.6157978515625,8.82951545715332,3.0011978149414062,-0.18723836541175842
1744883843747608300,14.6326083984375,8.93838882446289,3.139981508255005,-0.08195417374372482
1744883843764416800,14.649416748046875,9.133403778076172,3.2608189582824707,-0.1010967567563057
1744883843781233700,14.666233642578124,9.361320495605469,3.3338000774383545,-0.17288143932819366
1744883843798042400,14.68304248046875,9.53659439086914,3.397808074951172,-0.2877369225025177
1744883843814852400,14.699852294921875,9.498908042907715,3.3308091163635254,-0.3595215976238251
1744883843831663900,14.716663818359375,9.388239860534668,3.3828530311584473,-0.3684946894645691
1744883843848461800,14.7334619140625,9.22134017944336,3.386442184448242,-0.3678964674472809
1744883843865286000,14.750285888671876,9.120841979980469,3.40079927444458,-0.4295116662979126
1744883843882096400,14.767096435546875,9.105886459350586,3.40079927444458,-0.4773681163787842
1744883843898895000,14.78389501953125,9.18305492401123,3.3062827587127686,-0.5066801905632019
1744883843915718400,14.800718505859376,9.298508644104004,3.2207393646240234,-0.5359922647476196
1744883843932530000,14.817530029296876,9.407979965209961,3.211766242980957,-0.5700899958610535
1744883843949340700,14.834340576171876,9.494122505187988,3.221935749053955,-0.584446907043457
1744883843966152000,14.85115185546875,9.604191780090332,3.2410783767700195,-0.503689169883728
1744883843982962400,14.86796240234375,9.690333366394043,3.2410783767700195,-0.40319061279296875
1744883843999774000,14.88477392578125,9.729216575622559,3.19860577583313,-0.3798605799674988
1744883844016584400,14.90158447265625,9.734002113342285,3.1746773719787598,-0.389431893825531
1744883844033396000,14.91839599609375,9.681958198547363,3.1645078659057617,-0.3798605799674988
1744883844050208000,14.9352080078125,9.591629981994629,3.1351959705352783,-0.32721850275993347
1744883844067016400,14.952016357421876,9.501300811767578,3.1106693744659424,-0.3320041298866272
1744883844083828500,14.968828369140626,9.401400566101074,3.067000389099121,-0.32183465361595154
1744883844100639000,14.985638916015626,9.33440113067627,3.0287153720855713,-0.32662028074264526
1744883844117451500,15.002451416015624,9.34457015991211,2.995215654373169,-0.35114672780036926
1744883844134259000,15.019259033203125,9.378069877624512,2.957528829574585,-0.37507495284080505
1744883844151078100,15.036078125,9.477970123291016,2.953341245651245,-0.40378883481025696
1744883844167881500,15.052881591796876,9.626325607299805,2.963510751724243,-0.4043870270252228
1744883844184691500,15.06969140625,9.749555587768555,3.0077781677246094,-0.44745782017707825
1744883844201509000,15.086509033203125,9.835099220275879,3.0370900630950928,-0.4905286431312561
1744883844218316500,15.103316650390624,9.887741088867188,3.0514471530914307,-0.47617170214653015
1744883844235128000,15.120128173828125,9.973882675170898,3.0424740314483643,-0.4911268353462219
1744883844251938300,15.136938232421874,10.073782920837402,3.0526435375213623,-0.5006981492042542
1744883844268737800,15.15373779296875,10.15573787689209,3.0143582820892334,-0.43908295035362244
1744883844285561000,15.17056103515625,10.14616584777832,2.9904301166534424,-0.4534398913383484
1744883844302371800,15.187371826171875,10.046265602111816,2.9659037590026855,-0.4342973232269287
1744883844319182600,15.2041826171875,9.874580383300781,2.9359934329986572,-0.3858426511287689
1744883844335992600,15.22099267578125,9.678967475891113,2.9353952407836914,-0.4043870270252228
1744883844352806100,15.23780615234375,9.545567512512207,2.943770170211792,-0.37088751792907715
1744883844369616400,15.254616455078125,9.527023315429688,2.905484914779663,-0.34217363595962524
1744883844386426600,15.271426513671875,9.607781410217285,2.906083106994629,-0.3517449200153351
1744883844403238100,15.288238037109375,9.765707015991211,2.892324447631836,-0.33798620104789734
1744883844420049000,15.305048828125,9.889535903930664,2.888735055923462,-0.381655216217041
1744883844436860200,15.321860107421875,9.937392234802246,2.8935208320617676,-0.4055834412574768
1744883844453671000,15.3386708984375,9.966106414794922,2.8791637420654297,-0.4007977843284607
1744883844470479000,15.35547900390625,9.946365356445312,2.9174489974975586,-0.4103690981864929
1744883844487295700,15.372295654296876,9.93679428100586,2.9700911045074463,-0.3762713670730591
1744883844504104200,15.389104248046875,9.921838760375977,2.998805046081543,-0.3810569941997528
1744883844520914700,15.405914794921875,9.907482147216797,3.012563705444336,-0.37148571014404297
1744883844537726200,15.422726318359375,9.921838760375977,2.9892337322235107,-0.3810569941997528
1744883844554533600,15.43953369140625,9.964909553527832,2.9796624183654785,-0.4336991012096405
1744883844571348200,15.45634814453125,9.960124015808105,2.960519790649414,-0.41934216022491455
1744883844588161800,15.473161865234376,9.893723487854004,2.927020311355591,-0.39541393518447876
1744883844604970200,15.48997021484375,9.827322959899902,2.9168508052825928,-0.4097708761692047
1744883844621780700,15.50678076171875,9.731609344482422,2.901895761489868,-0.4049852192401886
1744883844638588200,15.523588134765625,9.660423278808594,2.8725836277008057,-0.37148571014404297
1744883844655402800,15.54040283203125,9.607781410217285,2.882154941558838,-0.3810569941997528
1744883844672214300,15.55721435546875,9.593423843383789,2.8869404792785645,-0.4043870270252228
1744883844689024800,15.574024658203125,9.593423843383789,2.8677978515625,-0.4001995921134949
1744883844705825000,15.590824951171875,9.57906723022461,2.8869404792785645,-0.3756731450557709
1744883844722649900,15.60764990234375,9.617352485656738,2.8869404792785645,-0.42352959513664246
1744883844739458300,15.624458251953126,9.750752449035645,2.8929226398468018,-0.4097708761692047
1744883844756255700,15.641255859375,9.913464546203613,2.8791637420654297,-0.381655216217041
1744883844773080800,15.658080810546876,10.061819076538086,2.8701908588409424,-0.39182472229003906
1744883844789890800,15.674890869140626,10.133604049682617,2.8420751094818115,-0.372682124376297
1744883844806689800,15.691689697265625,10.14317512512207,2.8420751094818115,-0.4013960063457489
1744883844823512600,15.7085126953125,10.094720840454102,2.874976396560669,-0.3966103494167328
1744883844840324400,15.725324462890624,9.980463027954102,2.8935208320617676,-0.381655216217041
1744883844857122000,15.7421220703125,9.89432144165039,2.926422119140625,-0.33858439326286316
1744883844873943300,15.758943359375,9.808777809143066,2.9210381507873535,-0.30927231907844543
1744883844890756900,15.7757568359375,9.780064582824707,2.9066812992095947,-0.31405797600746155
1744883844907565800,15.79256591796875,9.760921478271484,2.9066812992095947,-0.3044866919517517
1744883844924376600,15.80937646484375,9.756135940551758,2.9012975692749023,-0.2949153780937195
1744883844941194800,15.82619482421875,9.760921478271484,2.892324447631836,-0.33798620104789734
1744883844958000600,15.843000732421874,9.780064582824707,2.877967357635498,-0.3529413342475891
1744883844974800600,15.859800537109376,9.794421195983887,2.8689942359924316,-0.3768695592880249
1744883844991609600,15.876609619140625,9.837491989135742,2.878565549850464,-0.3577269911766052
1744883845008416800,15.893416748046874,9.837491989135742,2.854637384414673,-0.3194418251514435
1744883845025242600,15.91024267578125,9.842277526855469,2.8450660705566406,-0.3242274820804596
1744883845042053600,15.9270537109375,9.875777244567871,2.8689942359924316,-0.33858439326286316
1744883845058860000,15.943860107421875,9.937990188598633,2.878565549850464,-0.3194418251514435
1744883845075678200,15.96067822265625,10.013962745666504,2.9174489974975586,-0.30987054109573364
1744883845092488400,15.977488525390624,10.104291915893555,2.9515466690063477,-0.3248256742954254
1744883845109300500,15.994300537109375,10.16590690612793,2.956930637359619,-0.3439682424068451
1744883845126110700,16.01111083984375,10.16171932220459,2.923431158065796,-0.3535395562648773
1744883845142905300,16.0279052734375,10.070792198181152,2.89890456199646,-0.35832518339157104
1744883845159738000,16.044738037109376,9.89970588684082,2.864806890487671,-0.36251261830329895
1744883845176544300,16.061544189453127,9.742377281188965,2.854039192199707,-0.3481557071208954
1744883845193341700,16.078341796875,9.622735977172852,2.853440999984741,-0.3236292600631714
1744883845210159900,16.095159912109374,9.627521514892578,2.843869686126709,-0.3332005441188812
1744883845226976800,16.111976806640627,9.709476470947266,2.80558443069458,-0.3194418251514435
1744883845243788300,16.128788330078127,9.814760208129883,2.791825771331787,-0.2955136001110077
1744883845260598800,16.145598876953127,9.866804122924805,2.8211379051208496,-0.30508488416671753
1744883845277410300,16.162410400390623,9.862018585205078,2.8450660705566406,-0.2907279431819916
1744883845294218500,16.179218505859374,9.78963565826416,2.9012975692749023,-0.2476571500301361
1744883845311021600,16.196021484375,9.684351921081543,2.943770170211792,-0.2470589429140091
1744883845327839500,16.212839599609374,9.640682220458984,3.0203404426574707,-0.275174617767334
1744883845344654300,16.229654296875,9.721440315246582,3.064009428024292,-0.2847459018230438
1744883845361468400,16.246468505859376,9.859625816345215,3.0789644718170166,-0.3044866919517517
1744883845378289700,16.26328955078125,9.997811317443848,3.0753753185272217,-0.3858426511287689
1744883845395086000,16.280086181640623,10.098309516906738,3.047259569168091,-0.36729827523231506
1744883845411898400,16.2968984375,10.069596290588379,3.0376882553100586,-0.36251261830329895
1744883845428692700,16.313692626953124,9.955338478088379,3.0514471530914307,-0.3475574851036072
1744883845445523500,16.3305234375,9.879366874694824,2.9790642261505127,-0.33798620104789734
1744883845462331000,16.347330810546875,9.803394317626953,2.978466033935547,-0.3284149169921875
1744883845479142400,16.364142333984375,9.716654777526855,3.001796007156372,-0.3565305769443512
1744883845495953000,16.380952880859375,9.644869804382324,3.0113673210144043,-0.4091726839542389
1744883845512764400,16.397764404296876,9.616155624389648,3.0065815448760986,-0.380458801984787
1744883845529574700,16.41457470703125,9.607182502746582,3.005983352661133,-0.2991028428077698
1744883845546386400,16.431386474609376,9.674181938171387,2.99222469329834,-0.3278166949748993
1744883845563197200,16.448197265625,9.735796928405762,3.0071799755096436,-0.3756731450557709
1744883845580008400,16.465008544921876,9.865009307861328,2.988635540008545,-0.36670008301734924
1744883845596819000,16.48181884765625,9.941579818725586,2.960519790649414,-0.3529413342475891
1744883845613627100,16.498627197265623,9.92243766784668,2.9694929122924805,-0.33798620104789734
1744883845630444000,16.515444091796876,9.822537422180176,2.964108943939209,-0.3188436031341553
1744883845647241500,16.532241455078125,9.678967475891113,2.9730820655822754,-0.3086741268634796
1744883845664060700,16.549060791015624,9.545567512512207,2.991028308868408,-0.24646073579788208
1744883845680877000,16.565876953125,9.42173957824707,2.9760732650756836,-0.21774685382843018
1744883845697684700,16.582684814453124,9.373882293701172,2.956930637359619,-0.26500511169433594
1744883845714493700,16.59949365234375,9.403194427490234,2.899502754211426,-0.2847459018230438
1744883845731309600,16.6163095703125,9.374481201171875,2.8516464233398438,-0.2799602448940277
1744883845748093000,16.633093017578126,9.274580955505371,2.8319056034088135,-0.28953152894973755
1744883845764933600,16.64993359375,9.131608963012695,2.816950559616089,-0.2602194547653198
1744883845781740500,16.666740478515624,9.007183074951172,2.8253252506256104,-0.2554338276386261
1744883845798565000,16.683565185546875,9.007183074951172,2.877967357635498,-0.24526432156562805
1744883845815362600,16.700362548828124,9.139984130859375,2.9413771629333496,-0.2883351147174835
1744883845832172800,16.7171728515625,9.44028377532959,2.9958138465881348,-0.32721850275993347
1744883845848985300,16.7339853515625,9.664012908935547,3.0305099487304688,-0.3565305769443512
1744883845865795000,16.750795166015624,9.836296081542969,3.050250768661499,-0.2757728099822998
1744883845882606600,16.767606689453125,9.926624298095703,3.0891339778900146,-0.26620152592658997
1744883845899417000,16.7844169921875,9.959526062011719,3.136990547180176,-0.3044866919517517
1744883845916228600,16.801228515625,10.006784439086914,3.132802963256836,-0.33798620104789734
1744883845933027000,16.818027099609374,10.174880027770996,3.0143582820892334,-0.4055834412574768
1744883845949850400,16.834850341796876,10.323235511779785,2.9108686447143555,-0.5497509837150574
1744883845966661000,16.8516611328125,10.453045845031738,2.7493531703948975,-0.5988038778305054
1744883845983472400,16.868472412109377,10.425528526306152,2.6153552532196045,-0.6227321028709412
1744883846000283100,16.885283203125,10.201799392700195,2.5328028202056885,-0.6227321028709412
1744883846017094400,16.902094482421877,9.902098655700684,2.459223508834839,-0.6029912829399109
1744883846033896200,16.918896240234375,9.568299293518066,2.4424736499786377,-0.5258227586746216
1744883846050716400,16.93571630859375,9.397212982177734,2.4221346378326416,-0.44446679949760437
1744883846067527000,16.95252685546875,9.373882293701172,2.3976082801818848,-0.38703906536102295
1744883846084329700,16.969329833984375,9.459425926208496,2.3742783069610596,-0.4061816334724426
1744883846101152300,16.98615234375,9.612566947937012,2.3706889152526855,-0.40677985548973083
1744883846117960700,17.002960693359373,9.612566947937012,2.3748764991760254,-0.35892340540885925
1744883846134773000,17.01977294921875,9.56052303314209,2.4125633239746094,-0.2871387302875519
1744883846151580200,17.036580078125,9.435498237609863,2.493321180343628,-0.243469700217247
1744883846168393200,17.053393310546873,9.324830055236816,2.569293260574341,-0.2667997181415558
1744883846185204500,17.07020458984375,9.252447128295898,2.6739792823791504,-0.26141586899757385
1744883846202015200,17.08701513671875,9.247062683105469,2.7122645378112793,-0.2709871530532837
1744883846218817000,17.103817138671875,9.389435768127441,2.822932481765747,-0.28953152894973755
1744883846235637000,17.120636962890625,9.6795654296875,2.8773691654205322,-0.3523431420326233
1744883846252448800,17.13744873046875,9.970891952514648,2.8654050827026367,-0.41515472531318665
1744883846269251000,17.1542509765625,10.228718757629395,2.8049862384796143,-0.5072783827781677
1744883846286070500,17.171070556640625,10.348360061645508,2.729612350463867,-0.5982056856155396
1744883846302881000,17.187881103515625,10.320243835449219,2.6769702434539795,-0.6269195079803467
1744883846319692500,17.204692626953126,10.148558616638184,2.6566312313079834,-0.5790630578994751
1744883846336503000,17.2215029296875,9.872187614440918,2.6021945476531982,-0.5784648656845093
1744883846353322800,17.23832275390625,9.591031074523926,2.557927370071411,-0.5970092415809631
1744883846370124800,17.255124755859374,9.367302894592285,2.489732027053833,-0.5539384484291077
1744883846386939400,17.271939453125,9.253045082092285,2.4604198932647705,-0.5485545992851257
1744883846403747000,17.2887470703125,9.229117393493652,2.4598217010498047,-0.5198407173156738
1744883846420558300,17.305558349609374,9.29611587524414,2.4741785526275635,-0.4534398913383484
1744883846437369000,17.322369140625,9.43489933013916,2.4843480587005615,-0.43908295035362244
1744883846454180400,17.339180419921874,9.592227935791016,2.5088746547698975,-0.41575294733047485
1744883846470992600,17.35599267578125,9.658628463745117,2.5525436401367188,-0.46839502453804016
1744883846487800800,17.37280078125,9.657432556152344,2.610569477081299,-0.5060819983482361
1744883846504609800,17.38960986328125,9.580862045288086,2.6763720512390137,-0.4630111753940582
1744883846521427500,17.406427490234375,9.499505996704102,2.723630428314209,-0.41934216022491455
1744883846538235100,17.423235107421874,9.479764938354492,2.761915445327759,-0.4336991012096405
1744883846555046400,17.44004638671875,9.541379928588867,2.8007988929748535,-0.48095735907554626
1744883846571854300,17.456854248046874,9.622138023376465,2.815753936767578,-0.47676992416381836
1744883846588659200,17.4736591796875,9.694520950317383,2.7631118297576904,-0.4486542344093323
1744883846605476400,17.490476318359374,9.665806770324707,2.7493531703948975,-0.49591249227523804
1744883846622293200,17.507293212890627,9.550951957702637,2.7726831436157227,-0.5198407173156738
1744883846639101200,17.52410107421875,9.407979965209961,2.7762725353240967,-0.44745782017707825
1744883846655909000,17.5409091796875,9.29312515258789,2.7900311946868896,-0.4378865361213684
1744883846672726500,17.5577265625,9.235696792602539,2.8181469440460205,-0.4660021960735321
1744883846689534700,17.57453466796875,9.22134017944336,2.823530673980713,-0.5138586759567261
1744883846706344400,17.591344482421874,9.245268821716309,2.761317253112793,-0.542572557926178
1744883846723157200,17.6081572265625,9.345169067382812,2.8002007007598877,-0.6143572330474854
1744883846739967200,17.62496728515625,9.387641906738281,2.8247270584106445,-0.6382854580879211
1744883846756778500,17.641778564453126,9.382855415344238,2.8582265377044678,-0.6095715761184692
1744883846773589200,17.65858935546875,9.258428573608398,2.8905298709869385,-0.5946164131164551
1744883846790400800,17.67540087890625,9.129216194152832,2.8899314403533936,-0.5802595019340515
1744883846807208000,17.6922080078125,9.014361381530762,2.908475875854492,-0.6083751320838928
1744883846824025900,17.70902587890625,8.990432739257812,2.9180471897125244,-0.584446907043457
1744883846840832500,17.72583251953125,9.047860145568848,2.9563324451446533,-0.4983053207397461
1744883846857646000,17.74264599609375,9.115457534790039,2.937189817428589,-0.45104706287384033
1744883846874439400,17.759439453125,9.210572242736816,2.923431158065796,-0.4701896607875824
1744883846891270000,17.776269775390624,9.29731273651123,2.895315408706665,-0.4660021960735321
1744883846908074200,17.79307421875,9.393025398254395,2.8761727809906006,-0.4139583110809326
1744883846924891600,17.8098916015625,9.383454322814941,2.8905298709869385,-0.4181457459926605
1744883846941699300,17.82669921875,9.430712699890137,2.905484914779663,-0.47557350993156433
1744883846958511600,17.84351171875,9.501898765563965,2.93001127243042,-0.48035913705825806
1744883846975308000,17.86030810546875,9.492327690124512,2.9204399585723877,-0.5186443328857422
1744883846992132900,17.8771328125,9.454042434692383,2.929413080215454,-0.494716078042984
1744883847008928800,17.8939287109375,9.387641906738281,2.9288148880004883,-0.48035913705825806
1744883847025760000,17.910760009765625,9.277571678161621,2.919243574142456,-0.48514479398727417
1744883847042558500,17.927558349609374,9.163313865661621,2.908475875854492,-0.4654040038585663
1744883847059380200,17.944380126953124,9.115457534790039,2.9180471897125244,-0.47976094484329224
1744883847076187100,17.961187255859375,9.181859016418457,2.9186453819274902,-0.4989035129547119
1744883847092999000,17.9779990234375,9.31166934967041,2.885744094848633,-0.48035913705825806
1744883847109806800,17.994806884765627,9.483952522277832,2.8390841484069824,-0.48095735907554626
1744883847126623200,18.011623291015624,9.603593826293945,2.7631118297576904,-0.4815555512905121
1744883847143428000,18.028427978515627,9.647262573242188,2.729612350463867,-0.47258245944976807
1744883847160230700,18.045230712890625,9.546764373779297,2.709871530532837,-0.4815555512905121
1744883847177055700,18.0620556640625,9.351150512695312,2.7086751461029053,-0.4570291340351105
1744883847193849900,18.078849853515624,9.18425178527832,2.6985056400299072,-0.44745782017707825
1744883847210661400,18.095661376953124,9.089137077331543,2.702693223953247,-0.42771705985069275
1744883847227486700,18.11248681640625,9.041280746459961,2.706880569458008,-0.4085744619369507
1744883847244294100,18.129294189453127,9.089137077331543,2.6877379417419434,-0.37088751792907715
1744883847261102600,18.1461025390625,9.193822860717773,2.7122645378112793,-0.3852444589138031
1744883847277919200,18.162919189453124,9.370293617248535,2.746960401535034,-0.41874396800994873
1744883847294731800,18.179731689453124,9.546764373779297,2.757728099822998,-0.46719861030578613
1744883847311540200,18.196540283203124,9.751948356628418,2.768495798110962,-0.49172505736351013
1744883847328352800,18.213352783203124,9.808777809143066,2.7499513626098633,-0.5108676552772522
1744883847345161200,18.2301611328125,9.828518867492676,2.7260231971740723,-0.5156532526016235
1744883847361977000,18.24697705078125,9.780662536621094,2.71645188331604,-0.5156532526016235
1744883847378773200,18.263773193359373,9.694520950317383,2.715853691101074,-0.5491527915000916
1744883847395596800,18.2805966796875,9.623334884643555,2.682354211807251,-0.5395814776420593
1744883847412397800,18.297397705078126,9.595218658447266,2.648256540298462,-0.5156532526016235
1744883847429218800,18.31421875,9.580862045288086,2.648256540298462,-0.49651068449020386
1744883847446016300,18.331016357421873,9.543174743652344,2.6195425987243652,-0.49651068449020386
1744883847462840800,18.3478408203125,9.500103950500488,2.623729944229126,-0.47258245944976807
1744883847479651300,18.3646513671875,9.437891006469727,2.627917528152466,-0.4624129831790924
1744883847496462800,18.381462890625,9.404391288757324,2.6327030658721924,-0.47676992416381836
1744883847513260300,18.39826025390625,9.390034675598145,2.661417007446289,-0.4624129831790924
1744883847530089000,18.4150888671875,9.42353343963623,2.661417007446289,-0.44805604219436646
1744883847546895400,18.431895263671876,9.499505996704102,2.6907291412353516,-0.4815555512905121
1744883847563706600,18.44870654296875,9.551549911499023,2.7008986473083496,-0.4863412082195282
1744883847580523000,18.46552294921875,9.561120986938477,2.705684185028076,-0.4863412082195282
1744883847597328600,18.48232861328125,9.518648147583008,2.7050859928131104,-0.4815555512905121
1744883847614127000,18.499127197265626,9.465408325195312,2.7529425621032715,-0.4863412082195282
1744883847630950700,18.51595068359375,9.416953086853027,2.8049862384796143,-0.4713860750198364
1744883847647761000,18.532760986328125,9.379864692687988,2.7661030292510986,-0.3756731450557709
1744883847664569600,18.549569580078124,9.159725189208984,2.764906644821167,-0.42771705985069275
1744883847681386500,18.566386474609374,9.269196510314941,2.7846474647521973,-0.45224347710609436
1744883847698194700,18.583194580078125,9.484550476074219,2.795415163040161,-0.4097708761692047
1744883847714989000,18.599989013671873,9.516854286193848,2.906083106994629,-0.4666004180908203
1744883847731820000,18.616820068359374,9.559925079345703,2.8965117931365967,-0.44745782017707825
1744883847748614000,18.63361376953125,9.568299293518066,2.9306094646453857,-0.5377869009971619
1744883847765439000,18.65043896484375,9.464810371398926,2.9001009464263916,-0.2991028428077698
1744883847782246000,18.667245849609376,9.45583724975586,2.7906293869018555,-0.4139583110809326
1744883847799064300,18.684064208984374,9.574281692504883,2.7966115474700928,-0.5718846321105957
1744883847815871500,18.70087158203125,9.521639823913574,2.806182861328125,-0.5862415432929993
1744883847832682800,18.717682861328125,9.507282257080078,2.6973092555999756,-0.8063812255859375
1744883847849493500,18.734493408203125,9.592227935791016,2.7984061241149902,-0.849452018737793
1744883847866305000,18.751304931640625,9.486345291137695,2.94975209236145,-0.6622136831283569
1744883847883110400,18.7681103515625,9.324830055236816,2.9623143672943115,-0.5180460810661316
1744883847899931600,18.784931640625,9.365508079528809,2.746960401535034,-0.4570291340351105
1744883847916737300,18.8017373046875,9.314062118530273,2.726621389389038,-0.20877377688884735
1744883847933549000,18.818549072265625,9.19143009185791,2.6297121047973633,-0.07058826833963394
1744883847950359300,18.835359375,8.971888542175293,2.68953275680542,0.07357929646968842
1744883847967170800,18.8521708984375,8.847461700439453,2.7320053577423096,0.040677983313798904
1744883847983981300,18.868981201171874,8.71346378326416,2.7553353309631348,0.01734796352684498
1744883848000792800,18.885792724609374,8.727222442626953,2.8181469440460205,-0.02512463741004467
1744883848017603300,18.902603271484374,8.74038314819336,2.871387243270874,-0.13040883839130402
1744883848034411500,18.91941162109375,8.83071231842041,2.8767709732055664,-0.19262222945690155
1744883848051228700,18.936228759765626,8.921041488647461,2.9204399585723877,-0.22133609652519226
1744883848068038700,18.95303857421875,8.930612564086914,2.9108686447143555,-0.18305093050003052
1744883848084845800,18.969845703125,9.015557289123535,2.964108943939209,-0.2356930375099182
1744883848101659000,18.986658935546874,9.063413619995117,2.9599215984344482,-0.3361915946006775
1744883848118456600,19.00345654296875,9.17288589477539,2.937189817428589,-0.40797626972198486
1744883848135281000,19.020281005859374,9.311071395874023,2.9521448612213135,-0.39900317788124084
1744883848152091600,19.037091552734374,9.460023880004883,2.8624141216278076,-0.4139583110809326
1744883848168891000,19.053890869140623,9.604191780090332,2.796013355255127,-0.3762713670730591
1744883848185714200,19.070714111328126,9.752547264099121,2.7248268127441406,-0.36311084032058716
1744883848202523000,19.08752294921875,9.886545181274414,2.6973092555999756,-0.43968117237091064
1744883848219324400,19.104324462890624,9.848259925842285,2.7020950317382812,-0.4492524564266205
1744883848236146700,19.121146728515626,9.752547264099121,2.720639228820801,-0.4630111753940582
1744883848252957400,19.13795751953125,9.69930648803711,2.754138946533203,-0.5054838061332703
1744883848269769000,19.15476904296875,9.613164901733398,2.692523717880249,-0.6681957244873047
1744883848286579500,19.171579345703126,9.66520881652832,2.688336133956909,-0.7639086246490479
1744883848303391000,19.188390869140626,9.608379364013672,2.6733810901641846,-0.706480860710144
1744883848320201700,19.20520166015625,9.570094108581543,2.65842604637146,-0.6873382925987244
1744883848337004500,19.222004638671876,9.55633544921875,2.682354211807251,-0.6299105882644653
1744883848353814500,19.238814453125,9.527023315429688,2.6871397495269775,-0.6442674994468689
1744883848370635000,19.255635009765626,9.516854286193848,2.682952404022217,-0.7728816866874695
1744883848387445800,19.27244580078125,9.449854850769043,2.706880569458008,-0.849452018737793
1744883848404254500,19.28925439453125,9.491728782653809,2.77866530418396,-0.8823533654212952
1744883848421070300,19.3060703125,9.468399047851562,2.669193744659424,-0.9355936646461487
1744883848437878800,19.322878662109375,9.507282257080078,2.664407968521118,-0.916451096534729
1744883848454686500,19.3396865234375,9.525827407836914,2.669193744659424,-0.9499505758285522
1744883848471501000,19.3565009765625,9.510871887207031,2.7122645378112793,-0.9780662655830383
1744883848488314600,19.373314697265624,9.391828536987305,2.730808734893799,-0.9589236974716187
1744883848505123000,19.390123046875,9.309874534606934,2.806781053543091,-0.9104689955711365
1744883848521933600,19.40693359375,9.329017639160156,2.9108686447143555,-0.6999006271362305
1744883848538732500,19.423732666015624,9.411569595336914,2.919841766357422,-0.4899304509162903
1744883848555552300,19.44055224609375,9.68794059753418,3.111267566680908,-0.23688943684101105
1744883848572370400,19.457370361328124,9.863813400268555,3.098705291748047,-0.33738797903060913
1744883848589164300,19.474164306640624,10.012765884399414,2.956930637359619,-0.49591249227523804
1744883848605989000,19.490989013671875,10.232906341552734,3.0137600898742676,-0.24825534224510193
1744883848622799400,19.50779931640625,10.325029373168945,2.9419753551483154,-0.053240302950143814
1744883848639611100,19.524611083984375,10.412965774536133,2.8695926666259766,0.17587246000766754
1744883848656421600,19.541421630859375,10.560722351074219,2.9461629390716553,0.29012975096702576
1744883848673233400,19.5582333984375,10.374082565307617,2.9078776836395264,0.1136590763926506
1744883848690043400,19.57504345703125,10.18445110321045,2.730210542678833,0.003589233849197626
1744883848706855200,19.591855224609375,9.989436149597168,2.74755859375,0.18125630915164948
1744883848723665700,19.608665771484375,9.716654777526855,2.775076150894165,0.16271193325519562
1744883848740477000,19.625476806640624,9.548559188842773,2.675773859024048,-0.25722843408584595
1744883848757287400,19.642287353515623,9.389435768127441,2.4675984382629395,-0.9361918568611145
1744883848774099000,19.659098876953124,9.254241943359375,2.311466693878174,-1.461416482925415
1744883848790906000,19.675906005859375,9.08853816986084,2.228914260864258,-1.3992030620574951
1744883848807720000,19.692719970703124,8.903693199157715,2.169692039489746,-1.160519003868103
1744883848824533500,19.709533447265624,8.605188369750977,2.1134605407714844,-0.8590233325958252
1744883848841345800,19.726345703125,8.26121997833252,2.2301106452941895,-0.6616154313087463
1744883848858153500,19.743153564453124,7.929215908050537,2.449054002761841,-0.8033902049064636
1744883848874965000,19.759965087890624,7.710870742797852,2.7074787616729736,-1.0019944906234741
1744883848891775500,19.776775390625,7.5804619789123535,2.7601208686828613,-1.144965648651123
1744883848908563200,19.793563232421874,7.585845947265625,2.768495798110962,-1.0061819553375244
1744883848925386800,19.81038671875,7.868797302246094,2.7930221557617188,-0.7058826684951782
1744883848942209000,19.827208984375,8.437690734863281,2.80977201461792,-0.5832505226135254
1744883848959006700,19.8440068359375,8.867202758789062,2.726621389389038,-0.7423732280731201
1744883848975831000,19.8608310546875,9.382855415344238,2.5878376960754395,-1.0785647630691528
1744883848992641300,19.877641357421876,10.603195190429688,1.6821542978286743,-1.3058829307556152
1744883849009428500,19.894428466796874,11.22353458404541,2.0554347038269043,-0.6418746709823608
1744883849026266600,19.9112666015625,10.504491806030273,2.826521635055542,-0.7513462901115417
1744883849043074800,19.92807470703125,10.163514137268066,3.229114055633545,-1.2783654928207397
1744883849059885300,19.94488525390625,9.376275062561035,3.257229804992676,-1.1042876243591309
1744883849076694500,19.961694580078124,8.722436904907227,3.428914785385132,-0.7292127013206482
1744883849093507300,19.97850732421875,8.314460754394531,3.6747772693634033,-0.7130611538887024
1744883849110318800,19.99531884765625,8.363512992858887,3.9254255294799805,-1.0079765319824219
1744883849127129300,20.01212939453125,8.845666885375977,3.9044883251190186,-1.0289137363433838
1744883849143942700,20.028942626953125,9.494720458984375,3.5054850578308105,-0.8410771489143372
1744883849160746800,20.045746826171875,9.9469633102417,3.129812002182007,-0.8297112584114075
1744883849177566200,20.062566162109373,10.201799392700195,2.874378204345703,-1.0031908750534058
1744883849194370600,20.07937060546875,10.179665565490723,2.620738983154297,-1.0809576511383057
1744883849211185700,20.096185546875,9.975677490234375,2.5663022994995117,-0.9182456731796265
1744883849227998000,20.112998046875,9.704092025756836,2.630908489227295,-0.7214360237121582
1744883849244804400,20.129804443359376,9.325428009033203,2.8151557445526123,-0.6957131624221802
1744883849261620200,20.1466201171875,9.065208435058594,2.9629125595092773,-0.8470591902732849
1744883849278416600,20.163416748046874,8.959325790405273,2.9868409633636475,-0.9708877801895142
1744883849295223000,20.18022314453125,8.955737113952637,2.909672260284424,-0.8805587291717529
1744883849312031700,20.19703173828125,9.023932456970215,2.8283164501190186,-0.7471588850021362
1744883849328848600,20.2138486328125,9.033503532409668,2.8564319610595703,-0.6753742098808289
1744883849345673200,20.230673095703125,9.086145401000977,2.885145902633667,-0.6753742098808289
1744883849362483500,20.2474833984375,9.262018203735352,2.9772696495056152,-0.6849454641342163
1744883849379295200,20.264295166015625,9.375079154968262,3.073580741882324,-0.7136593461036682
1744883849396105500,20.28110546875,9.513264656066895,3.084348440170288,-0.7519445419311523
1744883849412904000,20.297904052734374,9.56650447845459,3.0556344985961914,-0.714257538318634
1744883849429727700,20.314727783203125,9.495916366577148,2.99222469329834,-0.5760720372200012
1744883849446539000,20.3315390625,9.453444480895996,2.963510751724243,-0.5330012440681458
1744883849463349500,20.348349609375,9.43489933013916,2.958127021789551,-0.5282155871391296
1744883849480157700,20.36515771484375,9.367900848388672,2.9724838733673096,-0.503689169883728
1744883849496974600,20.381974609375,9.353543281555176,2.957528829574585,-0.47557350993156433
1744883849513772300,20.398772216796875,9.367900848388672,2.9772696495056152,-0.4989035129547119
1744883849530593500,20.415593505859373,9.458230018615723,2.968296527862549,-0.5186443328857422
1744883849547405000,20.432405029296874,9.492327690124512,2.943770170211792,-0.48514479398727417
1744883849564214800,20.44921484375,9.324830055236816,2.933600664138794,-0.5228317379951477
1744883849581028000,20.466028076171874,9.148957252502441,2.894717216491699,-0.5276173949241638
1744883849597837600,20.482837646484374,9.143573760986328,2.9659037590026855,-0.47976094484329224
1744883849614646500,20.499646484375,9.08674430847168,2.9036903381347656,-0.4941178858280182
1744883849631462100,20.516462158203126,9.163313865661621,2.9180471897125244,-0.4701896607875824
1744883849648271000,20.53327099609375,9.21117115020752,2.908475875854492,-0.4085744619369507
1744883849665093400,20.55009326171875,9.254241943359375,2.847458839416504,-0.494716078042984
1744883849681893000,20.56689306640625,9.367900848388672,2.882154941558838,-0.6478567123413086
1744883849698690300,20.583690185546875,9.448657989501953,2.916252613067627,-0.6999006271362305
1744883849715511800,20.60051171875,9.496515274047852,2.9210381507873535,-0.5952146053314209
1744883849732328700,20.61732861328125,9.502496719360352,2.895913600921631,-0.4139583110809326
1744883849749124600,20.63412451171875,9.722038269042969,2.8594231605529785,-0.46719861030578613
1744883849765934300,20.650934326171875,9.836894035339355,2.789433002471924,-0.6634100675582886
1744883849782759200,20.66775927734375,9.515657424926758,2.9114668369293213,-0.6430711150169373
1744883849799569700,20.684569580078126,9.142376899719238,3.019144058227539,-0.6083751320838928
1744883849816368000,20.7013681640625,8.97368335723877,3.228515863418579,-0.5258227586746216
1744883849833191400,20.71819140625,8.819944381713867,3.3373894691467285,-0.5437689423561096
1744883849850003200,20.735003173828126,8.940183639526367,3.280559778213501,-0.4821537733078003
1744883849866813700,20.751813720703126,9.065208435058594,3.1238300800323486,-0.5264210104942322
1744883849883625200,20.768625244140626,9.118449211120605,3.08135724067688,-0.5599204897880554
1744883849900435700,20.785435791015626,9.237491607666016,3.0723843574523926,-0.5796613097190857
1744883849917247000,20.8022470703125,9.538987159729004,3.0167510509490967,-0.5952146053314209
