time,seconds_elapsed,z,y,x
1744896831162666000,0.113666015625,9.736993789672852,1.073180913925171,-0.13220344483852386
1744896831179480300,0.130480224609375,9.851848602294922,1.007378339767456,-0.2183450609445572
1744896831196290800,0.147290771484375,9.860223770141602,1.017547845840454,-0.3475574851036072
1744896831213097200,0.16409716796875,9.779465675354004,1.0163514614105225,-0.2805584669113159
1744896831229917200,0.180917236328125,9.641879081726074,1.0528420209884644,-0.06999006122350693
1744896831246723800,0.197723876953125,9.484550476074219,1.1276177167892456,0.12681959569454193
1744896831263541000,0.214541015625,9.54197883605957,1.1850453615188599,0.21296121180057526
1744896831280332500,0.23133251953125,9.731609344482422,1.2580264806747437,0.10767702013254166
1744896831297156900,0.248156982421875,10.085148811340332,1.1461620330810547,-0.017946170642971992
1744896831313965800,0.2649658203125,10.290931701660156,1.1042876243591309,-0.04247260093688965
1744896831330799000,0.281799072265625,10.290931701660156,1.0857433080673218,-0.11425728350877762
1744896831347604200,0.298604248046875,10.180862426757812,1.085145115852356,-0.09032905846834183
1744896831364414200,0.315414306640625,10.128219604492188,1.1180464029312134,-0.0849452018737793
1744896831381204200,0.332204345703125,9.961320877075195,1.0456634759902954,-0.16151553392410278
1744896831398020400,0.349020263671875,9.765707015991211,1.054038405418396,-0.15134602785110474
1744896831414849000,0.36584912109375,9.625727653503418,1.1114661693572998,-0.2841476798057556
1744896831431655000,0.382655029296875,9.505488395690918,1.215553879737854,-0.26919254660606384
1744896831448477700,0.399477783203125,9.471389770507812,1.2735798358917236,-0.34995031356811523
1744896831465276400,0.4162763671875,9.490532875061035,1.3208380937576294,-0.22073788940906525
1744896831482092800,0.4330927734375,9.586843490600586,1.3298112154006958,-0.0729810893535614
1744896831498903000,0.449903076171875,9.687342643737793,1.3351950645446777,-0.025722842663526535
1744896831515714800,0.46671484375,9.69631576538086,1.3549357652664185,-0.08733802288770676
1744896831532538400,0.483538330078125,9.77707290649414,1.3794622421264648,-0.13998012244701385
1744896831549329200,0.5003291015625,9.891928672790527,1.3561322689056396,-0.16929219663143158
1744896831566154800,0.51715478515625,9.873982429504395,1.2598211765289307,-0.09810572862625122
1744896831582957300,0.533957275390625,9.884750366210938,1.1928220987319946,-0.0077766734175384045
1744896831599784000,0.550783935546875,9.852447509765625,1.0917253494262695,0.04426721855998039
1744896831616564200,0.567564208984375,9.80100154876709,1.0097711086273193,0.13040883839130402
1744896831633372700,0.58437255859375,9.777671813964844,0.97148597240448,0.13998012244701385
1744896831650183200,0.60118310546875,9.78664493560791,0.97148597240448,0.08733802288770676
1744896831667002600,0.618002685546875,9.814760208129883,0.9960124492645264,0.029910283163189888
1744896831683808800,0.634808837890625,9.775876998901367,1.0247262716293335,-0.01734796352684498
1744896831700624400,0.651624267578125,9.732208251953125,1.1060823202133179,-0.08374879509210587
1744896831717422800,0.6684228515625,9.693324089050293,1.1778669357299805,-0.11724831163883209
1744896831734241000,0.685240966796875,9.681958198547363,1.2646067142486572,-0.24107688665390015
1744896831751059200,0.70205908203125,9.752547264099121,1.327418327331543,-0.32183465361595154
1744896831767854000,0.71885400390625,9.765707015991211,1.404586911201477,-0.3930211067199707
1744896831784677400,0.735677490234375,9.7938232421875,1.4524433612823486,-0.4504488706588745
1744896831801488400,0.75248828125,9.836894035339355,1.49611234664917,-0.4217349886894226
1744896831818287600,0.76928759765625,9.855438232421875,1.5200406312942505,-0.40259242057800293
1744896831835113700,0.78611376953125,9.93679428100586,1.5014961957931519,-0.46002015471458435
1744896831851931600,0.802931640625,9.965508460998535,1.5104693174362183,-0.3601198196411133
1744896831868750800,0.819750732421875,9.967302322387695,1.347757339477539,-0.2841476798057556
1744896831885540900,0.836540771484375,9.954740524291992,1.2658032178878784,-0.13639089465141296
1744896831902368000,0.853367919921875,9.924830436706543,1.4608181715011597,-0.025722842663526535
1744896831919163400,0.870163330078125,9.772287368774414,1.441077470779419,-0.04426721855998039
1744896831935974100,0.88697412109375,9.67657470703125,1.4691931009292603,-0.02512463741004467
1744896831952782000,0.903781982421875,9.591031074523926,1.4967105388641357,0.08973085135221481
1744896831969612800,0.92061279296875,9.606584548950195,1.3962119817733765,0.12741780281066895
1744896831986407200,0.9374072265625,9.67777156829834,1.5104693174362183,0.2757728099822998
1744896832003234600,0.954234619140625,9.683155059814453,1.4291132688522339,0.2470589429140091
1744896832020046800,0.971046875,9.534201622009277,1.5146567821502686,0.23330020904541016
1744896832036856600,0.987856689453125,9.471389770507812,1.6055840253829956,0.21954147517681122
1744896832053660000,1.004659912109375,9.524032592773438,1.567897081375122,0.17647066712379456
1744896832070483000,1.02148291015625,9.55753231048584,1.5056836605072021,0.1423729509115219
1744896832087290400,1.038290283203125,9.57188892364502,1.430309772491455,-0.015553346835076809
1744896832104103400,1.055103515625,9.518648147583008,1.454237937927246,-0.08195417374372482
1744896832120918300,1.071918212890625,9.54197883605957,1.4925230741500854,-0.08673982322216034
1744896832137684500,1.0886845703125,9.67657470703125,1.4069796800613403,-0.0729810893535614
1744896832154504400,1.10550439453125,9.748957633972168,1.3076776266098022,-0.1501496136188507
1744896832171334700,1.122334716796875,9.79083251953125,1.46500563621521,-0.08255238085985184
1744896832188142800,1.139142822265625,9.732806205749512,1.5128620862960815,-0.129810631275177
1744896832204951600,1.15595166015625,9.669994354248047,1.5894324779510498,-0.17228323221206665
1744896832221767200,1.17276708984375,9.664012908935547,1.6947166919708252,-0.1908276081085205
1744896832238562800,1.189562744140625,9.673583984375,1.689931035041809,-0.243469700217247
1744896832255387000,1.206386962890625,9.659226417541504,1.685145378112793,-0.23389841616153717
1744896832272198100,1.2231982421875,9.678369522094727,1.6803597211837769,-0.1579262912273407
1744896832289009400,1.240009521484375,9.708279609680176,1.6319050788879395,-0.07238288223743439
1744896832305819600,1.256819580078125,9.728020668029785,1.5744773149490356,-0.005383851006627083
1744896832322631200,1.273631103515625,9.844072341918945,1.4506487846374512,0.06520441919565201
1744896832339459000,1.290458984375,9.941579818725586,1.311864972114563,0.13100704550743103
1744896832356260000,1.307260009765625,9.9469633102417,1.2161520719528198,0.12622138857841492
1744896832373078300,1.324078369140625,9.91286563873291,1.2735798358917236,0.10229317098855972
1744896832389889800,1.340889892578125,9.81236743927002,1.3591232299804688,0.15553347766399384
1744896832406699800,1.35769970703125,9.726225852966309,1.3866406679153442,0.22791635990142822
1744896832423507500,1.374507568359375,9.630513191223145,1.4386845827102661,0.2566302418708801
1744896832440330800,1.391330810546875,9.625128746032715,1.4865410327911377,0.25244277715682983
1744896832457133000,1.408133056640625,9.7064847946167,1.4350954294204712,0.1417747437953949
1744896832473942800,1.42494287109375,9.744172096252441,1.454836130142212,0.07537391036748886
1744896832490754300,1.44175439453125,9.791430473327637,1.4931213855743408,0.05144568532705307
1744896832507569700,1.458569580078125,9.732806205749512,1.5936198234558105,0.047258246690034866
1744896832524377300,1.47537744140625,9.675378799438477,1.6265212297439575,0.06640082597732544
1744896832541188900,1.49218896484375,9.646066665649414,1.674377679824829,0.04785645380616188
1744896832557984500,1.508984619140625,9.731609344482422,1.6654045581817627,-0.04307080805301666
1744896832574810600,1.525810546875,9.746564865112305,1.6031911373138428,-0.048454657196998596
1744896832591622100,1.5426220703125,9.742975234985352,1.4985052347183228,-0.07776673883199692
1744896832608433200,1.55943310546875,9.737591743469238,1.6271194219589233,0.018544375896453857
1744896832625227000,1.57622705078125,9.737591743469238,1.6648063659667969,0.10468599200248718
1744896832642041000,1.593041015625,9.741779327392578,1.755135416984558,0.24825534224510193
1744896832658852400,1.609852294921875,9.628120422363281,1.730010747909546,0.3535395562648773
1744896832675663400,1.626663330078125,9.55214786529541,1.7102699279785156,0.4205385744571686
1744896832692474600,1.643474609375,9.53360366821289,1.7001005411148071,0.43968117237091064
1744896832709287700,1.66028759765625,9.577272415161133,1.5667005777359009,0.38644084334373474
1744896832726096600,1.6770966796875,9.711869239807129,1.5242279767990112,0.49591249227523804
1744896832742908000,1.693907958984375,9.736993789672852,1.5140584707260132,0.6532405614852905
1744896832759707000,1.710706787109375,9.65085220336914,1.5463616847991943,0.6867401003837585
1744896832776525000,1.727525146484375,9.713065147399902,1.5182459354400635,0.672383189201355
1744896832793344000,1.744343994140625,9.832706451416016,1.4380863904953003,0.542572557926178
1744896832810156800,1.76115673828125,9.870393753051758,1.3914263248443604,0.4420739710330963
1744896832826963200,1.777963134765625,9.942177772521973,1.358525037765503,0.39900317788124084
1744896832843786800,1.794786865234375,9.92841911315918,1.3298112154006958,0.389431893825531
1744896832860586000,1.8115859375,9.856036186218262,1.358525037765503,0.32721850275993347
1744896832877414000,1.828413818359375,9.716055870056152,1.4727823734283447,0.20877377688884735
1744896832894217500,1.845217529296875,9.633503913879395,1.5254244804382324,0.09930214285850525
1744896832911015000,1.862014892578125,9.604789733886719,1.5254244804382324,0.08554340898990631
1744896832927826200,1.878826171875,9.614361763000488,1.4919248819351196,0.06580262631177902
1744896832944654300,1.895654296875,9.562317848205566,1.4871392250061035,0.06640082597732544
1744896832961464800,1.91246484375,9.609575271606445,1.5302101373672485,0.052043892443180084
1744896832978256000,1.929255859375,9.618548393249512,1.516451358795166,-0.053240302950143814
1744896832995091000,1.946091064453125,9.574281692504883,1.5744773149490356,-0.19621145725250244
1744896833011898000,1.962898193359375,9.54496955871582,1.5990036725997925,-0.33918261528015137
1744896833028709400,1.97970947265625,9.635298728942871,1.5565310716629028,-0.41156548261642456
1744896833045492200,1.9964921875,9.770493507385254,1.4997016191482544,-0.32602208852767944
1744896833062331100,2.0133310546875,9.868000984191895,1.2945170402526855,-0.2793620526790619
1744896833079138300,2.03013818359375,10.04686450958252,1.098903775215149,-0.20458634197711945
1744896833095954400,2.046954345703125,10.272985458374023,0.8709874153137207,-0.22971096634864807
1744896833112746500,2.06374658203125,10.320243835449219,0.8099704384803772,-0.4498506486415863
1744896833129565000,2.08056494140625,10.182058334350586,0.633499801158905,-0.6843472719192505
1744896833146372600,2.09737255859375,9.835099220275879,0.48813581466674805,-0.7363911867141724
1744896833163183900,2.114183837890625,9.308079719543457,0.666999340057373,-0.7483552694320679
1744896833179994400,2.130994384765625,8.643473625183105,0.7680960893630981,-0.6843472719192505
1744896833196806000,2.147805908203125,8.318049430847168,1.0325030088424683,-0.3433700501918793
1744896833213614300,2.1646142578125,8.465208053588867,1.176072359085083,-0.20937198400497437
1744896833230430700,2.1814306640625,8.694320678710938,1.0498509407043457,-0.4492524564266205
1744896833247238700,2.19823876953125,9.072386741638184,0.9708877801895142,-0.5078766345977783
1744896833264034000,2.215033935546875,9.164510726928711,0.9840483069419861,-0.21176479756832123
1744896833280860200,2.231860107421875,9.023334503173828,1.038485050201416,0.31405797600746155
1744896833297659400,2.248659423828125,8.890532493591309,1.0791629552841187,0.5964110493659973
1744896833314479900,2.26547998046875,8.7236328125,1.0396814346313477,0.6107679605484009
1744896833331294700,2.282294677734375,8.681160926818848,1.043868899345398,0.6442674994468689
1744896833348109300,2.299109375,8.752944946289062,0.9732806086540222,0.5916253924369812
1744896833364930000,2.315929931640625,9.160323143005371,0.8602197170257568,0.623330295085907
1744896833381739800,2.33273974609375,9.835099220275879,0.7818548083305359,0.7884350419044495
1744896833398537700,2.349537841796875,10.495518684387207,0.7034898400306702,0.9248259663581848
1744896833415367400,2.366367431640625,10.810174942016602,0.7483552694320679,0.9906286001205444
1744896833432165000,2.3831650390625,11.1373929977417,0.9750752449035645,0.8811569213867188
1744896833448990500,2.399990478515625,11.669198036193848,1.1473584175109863,0.5892325639724731
1744896833465796000,2.416796142578125,12.420543670654297,1.2011969089508057,0.1621137410402298
1744896833482587400,2.43358740234375,12.54975700378418,1.0929217338562012,0.013160524889826775
1744896833499423200,2.45042333984375,12.229118347167969,1.2813565731048584,0.2350948303937912
1744896833516225500,2.4672255859375,11.529217720031738,1.6265212297439575,0.21415762603282928
1744896833533043700,2.484043701171875,10.564909934997559,1.9004993438720703,-0.1782652884721756
1744896833549853200,2.500853271484375,9.945169448852539,2.0709879398345947,-0.5964110493659973
1744896833566663200,2.5176630859375,9.976874351501465,2.0303099155426025,-1.031306505203247
1744896833583473400,2.534473388671875,10.322038650512695,1.576271891593933,-1.5876377820968628
1744896833600276500,2.5512763671875,10.674980163574219,1.033101201057434,-1.6630117893218994
1744896833617082400,2.568082275390625,10.614561080932617,0.41515472531318665,-1.5032907724380493
1744896833633891000,2.58489111328125,10.144969940185547,0.31046873331069946,-1.1676974296569824
1744896833650704600,2.60170458984375,9.230911254882812,0.5341976284980774,-1.0689935684204102
1744896833667517700,2.618517578125,8.274380683898926,0.7585247755050659,-0.9840483069419861
1744896833684326400,2.635326416015625,7.489534854888916,0.9308080077171326,-0.9720842242240906
1744896833701137700,2.6521376953125,6.939784049987793,1.0091729164123535,-1.0319048166275024
1744896833717927700,2.668927734375,6.829713821411133,1.0755738019943237,-0.9930213689804077
1744896833734759700,2.685759765625,7.2681989669799805,1.1162517070770264,-1.0516455173492432
1744896833751571000,2.702571044921875,8.169096946716309,1.1700903177261353,-1.2448660135269165
1744896833768382200,2.71938232421875,9.486943244934082,1.1491531133651733,-1.2484551668167114
1744896833785192400,2.7361923828125,10.510473251342773,1.0109676122665405,-1.1754741668701172
1744896833802003700,2.753003662109375,11.056634902954102,0.9457631707191467,-1.0001999139785767
1744896833818803000,2.769802978515625,11.400603294372559,1.028315544128418,-0.7860422134399414
1744896833835626200,2.786626220703125,11.823534965515137,0.9475577473640442,-0.4007977843284607
1744896833852449800,2.80344970703125,12.253046989440918,0.646660327911377,-0.01615155301988125
1744896833869266200,2.82026611328125,12.476775169372559,0.25004997849464417,0.1052841991186142
1744896833886072600,2.837072509765625,12.206984519958496,-0.08015955984592438,-0.09571290761232376
1744896833902884000,2.853884033203125,11.56690502166748,-0.11665010452270508,-0.23748764395713806
1744896833919678200,2.87067822265625,10.685748100280762,0.023330021649599075,-0.4827519655227661
1744896833936505900,2.887505859375,9.798608779907227,0.30628129839897156,-0.698704183101654
1744896833953300700,2.90430078125,8.988637924194336,0.5700899958610535,-0.8147560954093933
1744896833970129000,2.92112890625,8.37428092956543,0.9014959335327148,-0.7734799385070801
1744896833986945000,2.937945068359375,8.028517723083496,1.2095718383789062,-0.5994020700454712
1744896834003745800,2.954745849609375,8.042875289916992,1.3232308626174927,-0.4175475537776947
1744896834020565800,2.971565673828125,8.525627136230469,1.3872389793395996,-0.21774685382843018
1744896834037359000,2.988359130859375,9.31884765625,1.357926845550537,-0.19621145725250244
1744896834054166800,3.005166748046875,10.149157524108887,1.3010972738265991,-0.3517449200153351
1744896834070995000,3.021994873046875,10.802995681762695,1.26699960231781,-0.49232324957847595
1744896834087776500,3.038776611328125,11.09910774230957,1.2023934125900269,-0.550349235534668
1744896834104603400,3.055603271484375,11.051849365234375,1.2065808773040771,-0.5407779216766357
1744896834121413600,3.07241357421875,10.777871131896973,1.301695466041565,-0.6640082597732544
1744896834138211800,3.0892119140625,10.207781791687012,1.4141582250595093,-0.8721838593482971
1744896834155036700,3.10603662109375,9.561120986938477,1.5595221519470215,-0.9936196208000183
1744896834171847400,3.122847412109375,9.044869422912598,1.6325032711029053,-0.9493523836135864
1744896834188657700,3.13965771484375,8.758927345275879,1.6307085752487183,-0.8530412912368774
1744896834205469400,3.156469482421875,8.721240043640137,1.5726827383041382,-0.7908278703689575
1744896834222280000,3.173280029296875,8.803792953491211,1.5200406312942505,-0.719641387462616
1744896834239091500,3.190091552734375,8.875576972961426,1.4871392250061035,-0.7058826684951782
1744896834255902200,3.206902099609375,8.94257640838623,1.4967105388641357,-0.6580262184143066
1744896834272713200,3.223713134765625,9.004191398620605,1.5499508380889893,-0.6484549641609192
1744896834289524500,3.2405244140625,9.050851821899414,1.669592022895813,-0.6239284873008728
1744896834306336000,3.2573359375,9.069396018981934,1.8215361833572388,-0.48035913705825806
1744896834323146200,3.274146240234375,9.170493125915527,1.8831514120101929,-0.21774685382843018
1744896834339946500,3.290946533203125,9.367302894592285,1.9112670421600342,0.07836493849754333
1744896834356754200,3.307754150390625,9.592227935791016,1.922034740447998,0.18723836541175842
1744896834373589200,3.32458935546875,9.79262638092041,1.970489501953125,0.23030917346477509
1744896834390412300,3.341412353515625,10.006784439086914,2.038684844970703,0.19621145725250244
1744896834407215900,3.3582158203125,10.206584930419922,2.0691933631896973,0.11006984114646912
1744896834424022800,3.375022705078125,10.325628280639648,2.0416758060455322,0.028115665540099144
1744896834440832500,3.39183251953125,10.463813781738281,2.008774518966675,-0.03409772366285324
1744896834457652200,3.40865234375,10.53200912475586,1.9040886163711548,-0.03469592705368996
1744896834474459600,3.425459716796875,10.452447891235352,1.7742780447006226,0.026919255033135414
1744896834491271000,3.44227099609375,10.200602531433105,1.6815561056137085,0.12741780281066895
1744896834508065800,3.459065673828125,9.80937671661377,1.6265212297439575,0.12801600992679596
1744896834524895200,3.475895263671875,9.41336441040039,1.581655740737915,0.10049854964017868
1744896834541704000,3.492703857421875,9.065208435058594,1.536790370941162,0.05802594870328903
1744896834558491400,3.509491455078125,8.892925262451172,1.5122638940811157,-0.008374879136681557
1744896834575317000,3.52631689453125,8.9312105178833,1.451246976852417,-0.1423729509115219
1744896834592123100,3.543123046875,9.131608963012695,1.3860424757003784,-0.28654050827026367
1744896834608931000,3.55993115234375,9.251250267028809,1.3196417093276978,-0.31106695532798767
1744896834625748500,3.57674853515625,9.290732383728027,1.2957134246826172,-0.16331014037132263
1744896834642557000,3.593556884765625,9.233304023742676,1.3800604343414307,0.023330021649599075
1744896834659364000,3.610364013671875,9.122636795043945,1.5032907724380493,0.10588239878416061
1744896834676182000,3.62718212890625,9.126823425292969,1.5948163270950317,0.06759724020957947
1744896834692990000,3.643989990234375,9.244669914245605,1.6719847917556763,-0.013160524889826775
1744896834709801000,3.660801025390625,9.397212982177734,1.6971094608306885,-0.04247260093688965
1744896834726612000,3.677612060546875,9.492925643920898,1.7066807746887207,0.04366901144385338
1744896834743423000,3.694423095703125,9.594620704650879,1.6827524900436401,0.19561325013637543
1744896834760234500,3.711234375,9.78664493560791,1.5780665874481201,0.28115665912628174
1744896834777045500,3.72804541015625,9.950552940368652,1.430309772491455,0.32303106784820557
1744896834793853000,3.74485302734375,10.03310489654541,1.3495519161224365,0.3936193287372589
1744896834810670000,3.761670166015625,10.009177207946777,1.3304094076156616,0.364905446767807
1744896834827478300,3.778478271484375,10.031908988952637,1.3597214221954346,0.24107688665390015
1744896834844289500,3.79528955078125,10.107880592346191,1.3657035827636719,0.0687936544418335
1744896834861117700,3.81211767578125,10.155138969421387,1.3142578601837158,-0.0891326442360878
1744896834877915000,3.828914794921875,10.250852584838867,1.2478569746017456,-0.1704886108636856
1744896834894726400,3.845726318359375,10.323235511779785,1.181456208229065,-0.09990034252405167
1744896834911552000,3.862552001953125,10.305289268493652,1.1419745683670044,0.048454657196998596
1744896834928358100,3.879358154296875,10.119845390319824,1.1545369625091553,0.21595224738121033
1744896834945169400,3.89616943359375,9.780662536621094,1.2335001230239868,0.355932354927063
1744896834961980000,3.91297998046875,9.322437286376953,1.3543375730514526,0.5389832854270935
1744896834978787600,3.92978759765625,8.840283393859863,1.4081761837005615,0.7411768436431885
1744896834995606500,3.9466064453125,8.453842163085938,1.4865410327911377,0.9002995491027832
1744896835012414000,3.9634140625,8.325227737426758,1.5230315923690796,1.0390832424163818
1744896835029220600,3.980220703125,8.584251403808594,1.4189438819885254,1.0713863372802734
1744896835046040300,3.997040283203125,9.121439933776855,1.197009563446045,1.1024930477142334
1744896835062829300,4.013829345703125,9.847661972045898,1.0636097192764282,0.9517452120780945
1744896835079644200,4.03064404296875,10.39501953125,1.1102696657180786,0.7740781307220459
1744896835096455200,4.047455078125,10.49372386932373,1.1509476900100708,0.46360939741134644
1744896835113257500,4.064257568359375,10.548758506774902,1.1958130598068237,0.15314064919948578
1744896835130077000,4.081076904296875,10.64387321472168,1.2203395366668701,0.04307080805301666
1744896835146888400,4.097888427734375,10.744970321655273,1.058824062347412,-0.0011964113218709826
1744896835163707100,4.11470703125,10.702497482299805,1.0348957777023315,-0.03409772366285324
1744896835180514000,4.13151416015625,10.48953628540039,1.2352946996688843,-0.2189432680606842
1744896835197318000,4.14831787109375,10.074979782104492,1.516451358795166,-0.4366901218891144
1744896835214134000,4.165134033203125,9.5802640914917,1.781456470489502,-0.5198407173156738
1744896835230943700,4.18194384765625,9.047262191772461,2.018944025039673,-0.6801598072052002
1744896835247742000,4.198741943359375,8.810373306274414,2.2809581756591797,-0.8309076428413391
1744896835264552400,4.215552490234375,8.879764556884766,2.4400808811187744,-0.9547362327575684
1744896835281376800,4.232376708984375,9.288339614868164,2.53399920463562,-1.1413763761520386
1744896835298187800,4.249187744140625,9.840482711791992,2.624328136444092,-1.4195420742034912
1744896835314994400,4.265994384765625,10.4823579788208,2.7726831436157227,-1.6259230375289917
1744896835331814100,4.282814208984375,10.996814727783203,2.885744094848633,-1.703689694404602
1744896835348621000,4.29962109375,11.20199966430664,2.9150562286376953,-1.6277176141738892
1744896835365436000,4.316435791015625,11.031510353088379,2.870789051055908,-1.5080764293670654
1744896835382256600,4.333256591796875,10.459626197814941,2.909074068069458,-1.2388839721679688
1744896835399067400,4.3500673828125,9.821340560913086,2.9180471897125244,-0.8548358678817749
1744896835415874800,4.366874755859375,9.351150512695312,2.8516464233398438,-0.5150550603866577
1744896835432694000,4.383694091796875,9.096315383911133,2.6626133918762207,-0.2476571500301361
1744896835449501400,4.40050146484375,9.003593444824219,2.431705951690674,-0.1094716340303421
1744896835466311700,4.417311767578125,9.025128364562988,2.2301106452941895,0.03290131315588951
1744896835483104500,4.4341044921875,9.251849174499512,2.08713960647583,0.20338992774486542
1744896835499917600,4.45091748046875,9.438488960266113,2.049452543258667,0.26979073882102966
1744896835516744700,4.46774462890625,9.693922996520996,2.214557409286499,0.12622138857841492
1744896835533553400,4.484553466796875,9.858428955078125,2.317448616027832,-0.23210379481315613
1744896835550353700,4.501353759765625,9.938589096069336,2.3569302558898926,-0.37507495284080505
1744896835567164400,4.518164306640625,10.040284156799316,2.2995026111602783,-0.275174617767334
1744896835583955200,4.534955078125,10.128219604492188,2.1505494117736816,-0.07118647545576096
1744896835600786200,4.5517861328125,10.143773078918457,2.045863389968872,-0.0526420995593071
1744896835617592600,4.568592529296875,10.062417030334473,1.9698911905288696,-0.243469700217247
1744896835634408700,4.58540869140625,10.000802040100098,1.898106575012207,-0.3152543902397156
1744896835651217700,4.6022177734375,10.073782920837402,1.7545372247695923,-0.2350948303937912
1744896835668020200,4.619020263671875,10.26640510559082,1.583450436592102,-0.20757736265659332
1744896835684842000,4.635842041015625,10.506285667419434,1.4506487846374512,-0.2757728099822998
1744896835701639700,4.6526396484375,10.352546691894531,1.4656038284301758,-0.4660021960735321
1744896835718464300,4.66946435546875,9.891928672790527,1.5930216312408447,-0.6364908218383789
1744896835735274800,4.686274658203125,9.422337532043457,1.8717855215072632,-0.4905286431312561
1744896835752098800,4.703098876953125,9.178269386291504,1.9938194751739502,-0.2745763957500458
1744896835768887300,4.71988720703125,9.141778945922852,1.9543378353118896,-0.11665010452270508
1744896835785706500,4.73670654296875,9.132207870483398,1.9304096698760986,-0.14117653667926788
1744896835802520300,4.753520263671875,9.028717994689941,2.117648124694824,-0.35473597049713135
1744896835819332600,4.77033251953125,8.711071014404297,2.303689956665039,-0.6059823632240295
1744896835836138000,4.787137939453125,8.270193099975586,2.4681966304779053,-0.5946164131164551
1744896835852956000,4.803955810546875,7.925626754760742,2.5567309856414795,-0.5024927258491516
1744896835869780200,4.8207802734375,7.978867053985596,2.551945447921753,-0.43609192967414856
1744896835886584800,4.837584716796875,8.413763046264648,2.459223508834839,-0.5473581552505493
1744896835903402500,4.854402587890625,9.063413619995117,2.325225353240967,-0.7310073375701904
1744896835920194300,4.8711943359375,9.507282257080078,2.2468605041503906,-0.8805587291717529
1744896835937016800,4.888016845703125,9.665806770324707,2.2995026111602783,-0.6562315821647644
1744896835953833500,4.90483349609375,9.54796028137207,2.3635106086730957,-0.24526432156562805
1744896835970647600,4.9216474609375,9.42473030090332,2.4191436767578125,0.04666004329919815
1744896835987454700,4.938454833984375,9.347561836242676,2.5088746547698975,0.11904292553663254
1744896836004265200,4.95526513671875,9.382855415344238,2.667997360229492,-0.14775680005550385
1744896836021060000,4.97206005859375,9.570094108581543,2.9150562286376953,-0.4815555512905121
1744896836037857500,4.988857421875,9.876974105834961,3.0903303623199463,-0.8111668825149536
1744896836054685400,5.005685546875,10.072587013244629,3.0209386348724365,-1.0079765319824219
1744896836071496000,5.022495849609375,10.217950820922852,2.9389843940734863,-0.8081758618354797
1744896836088307500,5.039307373046875,10.223933219909668,2.8809585571289062,-0.5694918036460876
1744896836105118200,5.0561181640625,10.01456069946289,2.8929226398468018,-0.3924229145050049
1744896836121929500,5.072929443359375,9.713065147399902,3.0628130435943604,-0.3044866919517517
1744896836138753800,5.08975390625,9.410971641540527,3.171088218688965,-0.2745763957500458
1744896836155529200,5.106529296875,9.095717430114746,3.1794631481170654,-0.3074777126312256
1744896836172362500,5.123362548828125,9.053842544555664,3.0927233695983887,-0.3074777126312256
1744896836189174000,5.140174072265625,9.045467376708984,2.9874391555786133,-0.21236300468444824
1744896836205984500,5.156984619140625,9.158528327941895,2.757728099822998,-0.05623133108019829
1744896836222795500,5.17379541015625,9.370293617248535,2.600399971008301,0.08614161610603333
1744896836239609900,5.19060986328125,9.616155624389648,2.3431715965270996,0.08434699475765228
1744896836256415200,5.207415283203125,9.7938232421875,2.2438695430755615,0.054436713457107544
1744896836273225500,5.2242255859375,9.751948356628418,2.053640127182007,-0.13698910176753998
1744896836290040000,5.2410400390625,9.516854286193848,2.1003000736236572,-0.23688943684101105
1744896836306851000,5.25785107421875,9.42054271697998,2.1577277183532715,-0.29850462079048157
1744896836323659000,5.274658935546875,9.33320426940918,2.2199411392211914,-0.48873403668403625
1744896836340464000,5.291464111328125,9.193822860717773,2.224726915359497,-0.6652047038078308
1744896836357284000,5.3082841796875,9.097511291503906,2.310270309448242,-0.6358926296234131
1744896836374112800,5.32511279296875,8.915657043457031,2.3712873458862305,-0.5491527915000916
1744896836390925600,5.341925537109375,8.805587768554688,2.4089741706848145,-0.5246263742446899
1744896836407712800,5.358712646484375,8.876773834228516,2.4670002460479736,-0.5868397355079651
1744896836424543000,5.37554296875,9.057432174682617,2.4496521949768066,-0.7926225066184998
1744896836441337000,5.392337158203125,9.17587661743164,2.4131617546081543,-0.9888339638710022
1744896836458150700,5.409150634765625,9.31466007232666,2.342573404312134,-1.0325030088424683
1744896836474975200,5.425975341796875,9.410971641540527,2.3234307765960693,-0.9565308690071106
1744896836491769900,5.442769775390625,9.53061294555664,2.2618155479431152,-0.9475577473640442
1744896836508597500,5.459597412109375,9.6795654296875,2.2241287231445312,-0.924227774143219
1744896836525391600,5.4763916015625,9.741779327392578,2.1577277183532715,-0.9535398483276367
1744896836542205200,5.493205078125,9.708279609680176,2.138585329055786,-0.9774680733680725
1744896836559016700,5.5100166015625,9.531808853149414,2.1613171100616455,-0.9002995491027832
1744896836575828000,5.526827880859375,9.29312515258789,2.2648067474365234,-0.7848458290100098
1744896836592639000,5.543638916015625,9.081958770751953,2.4113669395446777,-0.7022934556007385
1744896836609449700,5.56044970703125,8.924032211303711,2.472383975982666,-0.6777670383453369
1744896836626278700,5.577278564453125,8.97667407989502,2.4436700344085693,-0.6394818425178528
1744896836643068400,5.594068359375,9.10229778289795,2.3294129371643066,-0.6215356588363647
1744896836659883300,5.61088330078125,9.289535522460938,2.1822543144226074,-0.5940182209014893
1744896836676693800,5.62769384765625,9.443872451782227,2.0679969787597656,-0.5467599630355835
1744896836693499600,5.644499755859375,9.535398483276367,1.9639091491699219,-0.6047859191894531
1744896836710321700,5.66132177734375,9.640682220458984,1.8550357818603516,-0.7202396392822266
1744896836727127300,5.678127197265625,9.6795654296875,1.7168502807617188,-0.8739784955978394
1744896836743951400,5.694951416015625,9.694520950317383,1.5978072881698608,-0.9655039310455322
1744896836760766500,5.711766357421875,9.618548393249512,1.4883357286453247,-1.0755738019943237
1744896836777571000,5.728571044921875,9.618548393249512,1.4506487846374512,-1.176072359085083
1744896836794371600,5.74537158203125,9.57069206237793,1.3884353637695312,-1.2861422300338745
1744896836811169000,5.7621689453125,9.537193298339844,1.3698909282684326,-1.3573286533355713
1744896836827982800,5.77898291015625,9.508479118347168,1.3363914489746094,-1.414756417274475
1744896836844804600,5.7958046875,9.509077072143555,1.2837493419647217,-1.439282774925232
1744896836861600500,5.8126005859375,9.519247055053711,1.1934202909469604,-1.4679967164993286
1744896836878434300,5.829434326171875,9.538389205932617,1.150349497795105,-1.482353687286377
1744896836895249400,5.84624951171875,9.653244972229004,1.1318050622940063,-1.4733805656433105
1744896836912063000,5.86306298828125,9.868000984191895,1.0809576511383057,-1.550549030303955
1744896836928876300,5.879876220703125,10.083354949951172,1.0342975854873657,-1.5750755071640015
1744896836945684200,5.896684326171875,10.265209197998047,0.9116654396057129,-1.705484390258789
1744896836962492000,5.913491943359375,10.441679954528809,0.9361918568611145,-1.6959130764007568
1744896836979312600,5.930312744140625,10.589436531066895,0.9804590940475464,-1.6917256116867065
1744896836996115700,5.94711572265625,10.708479881286621,1.0097711086273193,-1.6917256116867065
1744896837012911600,5.96391162109375,10.76112174987793,1.0719845294952393,-1.643869161605835
1744896837029726200,5.980726318359375,10.679167747497559,1.1569297313690186,-1.5332010984420776
1744896837046537500,5.997537353515625,10.564311981201172,1.2993026971817017,-1.412961721420288
1744896837063345400,6.014345458984375,10.477572441101074,1.4081761837005615,-1.311864972114563
1744896837080162300,6.031162353515625,10.472786903381348,1.4602199792861938,-1.2592228651046753
1744896837096970500,6.047970458984375,10.415358543395996,1.459621787071228,-1.201795220375061
1744896837113794300,6.064794189453125,10.292128562927246,1.4679967164993286,-1.1060823202133179
1744896837130593800,6.08159375,10.195816993713379,1.5206388235092163,-1.1150553226470947
1744896837147403500,6.098403564453125,10.191031455993652,1.563111424446106,-1.0959128141403198
1744896837164214500,6.115214599609375,10.258030891418457,1.5541383028030396,-1.0815558433532715
1744896837181026000,6.132026123046875,10.248459815979004,1.4877375364303589,-1.196411371231079
1744896837197825000,6.148824951171875,10.171889305114746,1.4919248819351196,-1.1724830865859985
1744896837214644500,6.16564453125,10.061819076538086,1.4871392250061035,-1.296311616897583
1744896837231478800,6.182478759765625,9.989436149597168,1.5439687967300415,-1.2382856607437134
1744896837248268800,6.199268798828125,9.818349838256836,1.5134602785110474,-1.1521440744400024
1744896837265096700,6.2160966796875,9.705288887023926,1.459621787071228,-1.0091729164123535
1744896837281888800,6.232888671875,9.686744689941406,1.397408366203308,-0.9517452120780945
1744896837298703000,6.249703125,9.759127616882324,1.3160524368286133,-0.9332008361816406
1744896837315511600,6.266511474609375,9.955338478088379,1.293320655822754,-0.9050851464271545
1744896837332328400,6.283328369140625,9.973882675170898,1.308275818824768,-1.0007981061935425
1744896837349136100,6.30013623046875,9.92961597442627,1.3710874319076538,-1.1389836072921753
1744896837365947600,6.31694775390625,9.665806770324707,1.4464613199234009,-1.2287144660949707
1744896837382783200,6.333783203125,9.272188186645508,1.716252088546753,-1.1832507848739624
1744896837399583500,6.35058349609375,8.758927345275879,1.9716858863830566,-1.1042876243591309
1744896837416387300,6.36738720703125,8.37129020690918,2.2785654067993164,-0.8153542876243591
1744896837433213000,6.384212890625,8.270791053771973,2.4538395404815674,-0.5138586759567261
1744896837450016300,6.401016357421875,8.333602905273438,2.4765713214874268,-0.2793620526790619
1744896837466828000,6.417828125,8.501100540161133,2.4388844966888428,-0.23270200192928314
1744896837483623700,6.434623779296875,8.544769287109375,2.4580271244049072,-0.15134602785110474
1744896837500436500,6.4514365234375,8.583653450012207,2.4574289321899414,0.058624155819416046
1744896837517243600,6.46824365234375,8.636893272399902,2.5567309856414795,0.3074777126312256
1744896837534045200,6.485045166015625,8.60758113861084,2.661417007446289,0.35533416271209717
1744896837550870000,6.5018701171875,8.5100736618042,2.8905298709869385,0.380458801984787
1744896837567672800,6.5186728515625,8.430512428283691,3.2476584911346436,0.5210371017456055
1744896837584499000,6.5354990234375,8.50289535522461,3.6502509117126465,0.4462614357471466
1744896837601320000,6.55231982421875,8.963513374328613,3.7603209018707275,0.04426721855998039
1744896837618103800,6.569103759765625,9.580862045288086,3.8189449310302734,-0.5156532526016235
1744896837634927400,6.58592724609375,10.14616584777832,3.8626139163970947,-0.9373882412910461
1744896837651732200,6.602732177734375,10.552348136901855,3.7603209018707275,-1.0965110063552856
1744896837668547800,6.6195478515625,10.657631874084473,3.76570463180542,-1.0923235416412354
1744896837685357300,6.636357421875,10.462616920471191,3.721437454223633,-1.0247262716293335
1744896837702168600,6.65316845703125,10.085148811340332,3.8470606803894043,-0.8135597109794617
1744896837718976800,6.669976806640625,9.768698692321777,4.0456647872924805,-0.7399803996086121
1744896837735804700,6.6868046875,9.491130828857422,4.101297855377197,-0.7244270443916321
1744896837752611600,6.703611572265625,9.232108116149902,4.195814609527588,-0.7663014531135559
1744896837769414400,6.720414306640625,9.110671997070312,4.358526229858398,-0.8943174481391907
1744896837786220300,6.73722021484375,9.031708717346191,4.569094657897949,-0.9744769930839539
1744896837803035000,6.754034912109375,8.921639442443848,4.686941146850586,-0.8111668825149536
1744896837819845600,6.770845703125,8.793622970581055,4.713860511779785,-0.5623133182525635
1744896837836657200,6.7876572265625,8.72901725769043,4.701896667480469,-0.19920247793197632
1744896837853464800,6.80446484375,8.706883430480957,4.624728202819824,-0.017946170642971992
1744896837870282200,6.8212822265625,8.788837432861328,4.576273441314697,0.11964113265275955
1744896837887094500,6.838094482421875,8.96530818939209,4.60139799118042,0.13878370821475983
1744896837903895800,6.854895751953125,9.293723106384277,4.618147850036621,-0.048454657196998596
1744896837920710400,6.87171044921875,9.958329200744629,4.474578380584717,-0.20398813486099243
1744896837937537800,6.888537841796875,10.542776107788086,3.7842490673065186,-0.16031911969184875
1744896837954343700,6.90534375,10.899307250976562,2.9629125595092773,-0.01196411345154047
1744896837971163400,6.922163330078125,10.667801856994629,2.2815563678741455,0.18125630915164948
1744896837987941600,6.938941650390625,9.997811317443848,2.2133610248565674,0.7034898400306702
1744896838004767700,6.955767822265625,9.151947975158691,2.441875457763672,0.916451096534729
1744896838021565400,6.9725654296875,8.299505233764648,2.6805596351623535,0.9391828775405884
1744896838038389800,6.9893896484375,7.613961696624756,2.8929226398468018,0.7938188910484314
1744896838055200800,7.00620068359375,7.261618614196777,3.122035264968872,0.48035913705825806
1744896838072012000,7.023011962890625,7.362715244293213,3.339782238006592,0.09930214285850525
1744896838088808000,7.039807861328125,7.846663475036621,3.511467218399048,-0.2548356056213379
1744896838105647400,7.0566474609375,8.599804878234863,3.5928232669830322,-0.42831525206565857
1744896838122455800,7.073455810546875,9.359525680541992,3.5306098461151123,-0.4498506486415863
1744896838139253000,7.0902529296875,9.939187049865723,3.3888349533081055,-0.24167509377002716
1744896838156076300,7.107076171875,10.218548774719238,3.2793633937835693,-0.03290131315588951
1744896838172878300,7.12387841796875,10.095318794250488,3.1926236152648926,0.06759724020957947
1744896838189689000,7.140689208984375,9.66939640045166,3.328416347503662,0.07836493849754333
1744896838206500600,7.15750048828125,9.061020851135254,3.5024940967559814,-0.02392822690308094
1744896838223312000,7.174311767578125,8.423334121704102,3.686741590499878,-0.19800607860088348
1744896838240132400,7.19113232421875,7.9244303703308105,3.8470606803894043,-0.3535395562648773
1744896838256930600,7.2079306640625,7.708477973937988,3.9744784832000732,-0.2955136001110077
1744896838273754600,7.224754638671875,7.703094482421875,4.113262176513672,-0.21355941891670227
1744896838290554600,7.2415546875,7.95434045791626,4.258028030395508,-0.251844584941864
1744896838307368400,7.258368408203125,8.37428092956543,4.322634220123291,-0.23808585107326508
1744896838324178000,7.275177978515625,8.784649848937988,4.377070903778076,-0.20578274130821228
1744896838340989200,7.2919892578125,9.195018768310547,4.408177375793457,-0.15912270545959473
1744896838357779200,7.308779296875,9.66819953918457,4.381856441497803,-0.15074782073497772
1744896838374611500,7.325611572265625,10.04985523223877,4.365106582641602,-0.24287149310112
1744896838391441700,7.342441650390625,10.074381828308105,4.231706619262695,-0.27696922421455383
1744896838408262700,7.3592626953125,9.665806770324707,4.0426740646362305,-0.22851456701755524
1744896838425057500,7.3760576171875,8.947959899902344,3.812962770462036,-0.09391828626394272
1744896838441868800,7.392868896484375,8.237890243530273,3.6939198970794678,0.026919255033135414
1744896838458665500,7.40966552734375,7.5188469886779785,3.4893336296081543,0.008973085321485996
1744896838475474400,7.426474365234375,7.41535758972168,3.5060834884643555,0.3242274820804596
1744896838492288500,7.44328857421875,7.420741081237793,3.3583266735076904,0.23270200192928314
1744896838509099800,7.460099853515625,7.960920810699463,3.180659532546997,0.015553346835076809
1744896838525910800,7.476910888671875,8.515457153320312,3.046063184738159,-0.1585244983434677
1744896838542722000,7.49372216796875,8.950352668762207,2.943171739578247,-0.19322042167186737
1744896838559531500,7.510531494140625,9.219545364379883,2.8767709732055664,-0.008374879136681557
1744896838576362500,7.527362548828125,9.473783493041992,2.919841766357422,0.2638086974620819
1744896838593169200,7.544169189453125,9.713065147399902,2.916252613067627,0.3678964674472809
1744896838609959700,7.560959716796875,9.879366874694824,2.9318058490753174,0.2961117923259735
1744896838626780200,7.5777802734375,10.077970504760742,3.0765717029571533,0.20039889216423035
1744896838643585300,7.594585205078125,10.171290397644043,3.2452657222747803,0.029312077909708023
1744896838660402400,7.61140234375,10.116853713989258,3.3894333839416504,-0.1417747437953949
1744896838677211000,7.6282109375,9.851848602294922,3.4893336296081543,-0.355932354927063
1744896838694021000,7.645021240234375,9.525827407836914,3.555136203765869,-0.5120640397071838
1744896838710850000,7.66185009765625,9.147761344909668,3.6113674640655518,-0.6017948985099792
1744896838727668200,7.678668212890625,8.73200798034668,3.6185460090637207,-0.6149554252624512
1744896838744451800,7.695451904296875,8.436494827270508,3.568894863128662,-0.5808576941490173
1744896838761279200,7.712279296875,8.279764175415039,3.4965121746063232,-0.5712863802909851
1744896838778071300,7.7290712890625,8.371888160705566,3.391227960586548,-0.5144568681716919
1744896838794888000,7.745887939453125,8.650053977966309,3.2919256687164307,-0.4582255482673645
1744896838811699500,7.762699462890625,9.09990406036377,3.1657042503356934,-0.45523449778556824
1744896838828510000,7.779510009765625,9.635896682739258,3.001796007156372,-0.5581258535385132
1744896838845308000,7.796307861328125,10.12881851196289,2.799602508544922,-0.6795616149902344
1744896838862132200,7.81313232421875,10.469197273254395,2.672184705734253,-0.7094719409942627
1744896838878947000,7.829947021484375,10.599007606506348,2.5674986839294434,-0.6580262184143066
1744896838895753500,7.84675341796875,10.561919212341309,2.504088878631592,-0.5150550603866577
1744896838912579300,7.863579345703125,10.319047927856445,2.5118656158447266,-0.42831525206565857
1744896838929390300,7.880390380859375,10.042078018188477,2.5387847423553467,-0.3655036687850952
1744896838946201600,7.89720166015625,9.64965534210205,2.565704107284546,-0.4546363055706024
1744896838962995000,7.913994873046875,9.281160354614258,2.630908489227295,-0.5204389095306396
1744896838979809800,7.930809814453125,9.050851821899414,2.7212376594543457,-0.5958128571510315
1744896838996620800,7.947620849609375,8.7505521774292,2.733201742172241,-0.494716078042984
1744896839013429500,7.964429443359375,8.569893836975098,2.7499513626098633,-0.22193430364131927
1744896839030245000,7.9812451171875,8.571090698242188,2.730210542678833,-0.031106693670153618
1744896839047054000,7.99805419921875,8.839086532592773,2.7314071655273438,0.001794616924598813
1744896839063878700,8.014878662109375,9.263813018798828,2.7050859928131104,-0.004187439568340778
1744896839080689400,8.031689453125,9.632308006286621,2.691925525665283,0.12861421704292297
1744896839097493500,8.048493408203125,9.918848037719727,2.816950559616089,0.2907279431819916
1744896839114298600,8.065298583984376,10.124032974243164,2.8037898540496826,0.2997010350227356
1744896839131109400,8.082109375,10.320243835449219,2.785843849182129,0.3278166949748993
1744896839147907800,8.098907958984375,10.479366302490234,2.623729944229126,0.3936193287372589
1744896839164721400,8.115721435546876,10.619945526123047,2.3575284481048584,0.2961117923259735
1744896839181539300,8.132539306640625,10.703095436096191,2.166102647781372,0.34277185797691345
1744896839198401300,8.1494013671875,10.646265983581543,2.1134605407714844,0.33798620104789734
1744896839215178500,8.166178466796875,10.445268630981445,2.1409780979156494,0.2913261651992798
1744896839231989500,8.182989501953125,10.158130645751953,2.221137523651123,0.2590230405330658
1744896839248800800,8.19980078125,9.966704368591309,2.239083766937256,0.2309073805809021
1744896839265608000,8.21660791015625,9.870991706848145,2.2480568885803223,0.21176479756832123
1744896839282410000,8.233409912109375,9.89432144165039,2.2773690223693848,0.12143574655056
1744896839299220000,8.250219970703125,9.887741088867188,2.3401806354522705,-0.040677983313798904
1744896839316033800,8.26703369140625,9.848259925842285,2.4604198932647705,-0.14057832956314087
1744896839332842500,8.283842529296875,9.670592308044434,2.50289249420166,-0.3068794906139374
1744896839349653800,8.30065380859375,9.487542152404785,2.5363919734954834,-0.49292147159576416
1744896839366461200,8.317461181640626,9.381659507751465,2.5986053943634033,-0.6209374666213989
1744896839383295700,8.334295654296875,9.361918449401855,2.6087749004364014,-0.6640082597732544
1744896839400100400,8.351100341796876,9.308079719543457,2.7278177738189697,-0.7016952633857727
1744896839416910800,8.367910888671876,9.284749984741211,2.66560435295105,-0.6729813814163208
1744896839433720000,8.384719970703125,9.17587661743164,2.640479803085327,-0.5724828243255615
1744896839450520300,8.401520263671875,9.032905578613281,2.63449764251709,-0.5102694034576416
1744896839467326500,8.418326416015624,8.917451858520508,2.819941520690918,-0.4181457459926605
1744896839484135700,8.4351357421875,8.82532787322998,2.9958138465881348,-0.2883351147174835
1744896839500953000,8.451953125,8.819944381713867,3.119642496109009,-0.1585244983434677
1744896839517760000,8.468760009765624,8.958727836608887,3.1866414546966553,-0.04426721855998039
1744896839534578400,8.485578369140624,9.178269386291504,3.1968109607696533,0.022133609279990196
1744896839551404500,8.502404541015625,9.437292098999023,3.150151014328003,0.11665010452270508
1744896839568229600,8.519229736328125,9.56650447845459,3.169891834259033,0.18783657252788544
1744896839585004000,8.536004150390625,9.575477600097656,3.2027931213378906,0.22133609652519226
1744896839601820000,8.55281982421875,9.494720458984375,3.2303106784820557,0.3655036687850952
1744896839618626800,8.569626708984375,9.462417602539062,3.1968109607696533,0.4223332107067108
1744896839635445800,8.58644580078125,9.524630546569824,3.1585259437561035,0.4223332107067108
1744896839652249900,8.603249755859375,9.539586067199707,3.1441688537597656,0.5318048596382141
1744896839669067300,8.6200673828125,9.464211463928223,3.1381869316101074,0.6849454641342163
1744896839685862000,8.63686181640625,9.378069877624512,3.1657042503356934,0.7806583642959595
1744896839702700000,8.653699951171875,9.474381446838379,3.118446111679077,0.794417142868042
1744896839719509500,8.670509521484375,9.632905960083008,2.9760732650756836,0.7172485589981079
1744896839736323600,8.687323486328125,9.657432556152344,2.80977201461792,0.5491527915000916
1744896839753131000,8.704131103515625,9.500103950500488,2.7804598808288574,0.49232324957847595
1744896839769947000,8.72094677734375,9.256035804748535,2.812762975692749,0.4737788736820221
1744896839786738200,8.73773828125,9.073583602905273,2.8600213527679443,0.3601198196411133
1744896839803535600,8.75453564453125,8.967103004455566,2.86061954498291,0.13100704550743103
1744896839820354800,8.771354736328124,8.85523796081543,2.9521448612213135,-0.18364913761615753
1744896839837174800,8.7881748046875,8.741579055786133,3.177668571472168,-0.46899324655532837
1744896839853983000,8.80498291015625,8.62014389038086,3.3690943717956543,-0.5246263742446899
1744896839870800400,8.82180029296875,8.638688087463379,3.4642090797424316,-0.49591249227523804
1744896839887610000,8.838610107421875,8.944969177246094,3.394218921661377,-0.46360939741134644
1744896839904432400,8.855432373046876,9.32303524017334,3.2584261894226074,-0.6131607890129089
1744896839921257700,8.8722578125,9.600004196166992,3.13639235496521,-0.8153542876243591
1744896839938025000,8.88902490234375,9.667003631591797,3.0370900630950928,-0.9828519225120544
1744896839954853000,8.90585302734375,9.490532875061035,2.9551360607147217,-1.0689935684204102
1744896839971663400,8.922663330078125,9.17587661743164,2.843869686126709,-1.1353943347930908
1744896839988475000,8.939474853515625,8.69372272491455,2.7942185401916504,-1.2346965074539185
1744896840005285600,8.95628564453125,8.277970314025879,2.853440999984741,-1.1282159090042114
1744896840022094300,8.97309423828125,8.026124954223633,2.83669114112854,-0.9074779748916626
1744896840038924800,8.9899248046875,8.10987377166748,2.7637102603912354,-0.6023930907249451
1744896840055729000,9.00672900390625,8.479565620422363,2.6117658615112305,-0.4085744619369507
1744896840072543700,9.023543701171874,8.9581298828125,2.5046870708465576,-0.4486542344093323
1744896840089338400,9.04033837890625,9.282955169677734,2.435295343399048,-0.5832505226135254
1744896840106152200,9.057152099609375,9.430712699890137,2.341377019882202,-0.727418065071106
1744896840122950400,9.073950439453125,9.708877563476562,2.2325034141540527,-0.714257538318634
1744896840139767800,9.090767822265626,10.02173900604248,2.0380866527557373,-0.6394818425178528
1744896840156576300,9.107576171875,10.180862426757812,1.8478572368621826,-0.6885347366333008
1744896840173394400,9.12439453125,10.1814603805542,1.7425731420516968,-0.6795616149902344
1744896840190227000,9.14122705078125,9.952945709228516,1.6791633367538452,-0.664606511592865
1744896840207032600,9.158032470703125,9.647860527038574,1.72941255569458,-0.5156532526016235
1744896840223854000,9.17485400390625,9.476176261901855,1.789831280708313,-0.3762713670730591
1744896840240658400,9.191658447265626,9.495916366577148,1.7413766384124756,-0.25244277715682983
1744896840257438200,9.208438232421875,9.602396965026855,1.6558332443237305,-0.1579262912273407
1744896840274274000,9.225274169921875,9.727422714233398,1.6271194219589233,-0.08673982322216034
1744896840291074600,9.242074462890624,9.850652694702148,1.6995022296905518,-0.09152546525001526
1744896840307873800,9.258873779296875,10.06421184539795,1.8442680835723877,-0.11066804826259613
1744896840324696600,9.275696533203124,10.449456214904785,2.056631088256836,-0.029312077909708023
1744896840341507600,9.292507568359374,10.581061363220215,2.2205393314361572,-0.1866401731967926
1744896840358327600,9.30932763671875,10.934002876281738,2.3030917644500732,-0.03888336941599846
1744896840375129600,9.326129638671874,10.823334693908691,2.3982064723968506,-0.004785645287483931
1744896840391924200,9.34292431640625,10.666604995727539,2.3300111293792725,0.04307080805301666
1744896840408750800,9.359750732421874,10.509875297546387,2.290529489517212,0.13878370821475983
1744896840425560000,9.37656005859375,10.13479995727539,2.0919251441955566,0.17228323221206665
1744896840442374000,9.393373779296875,9.900901794433594,2.0476579666137695,0.12023933976888657
1744896840459184600,9.4101845703125,9.699904441833496,2.0237298011779785,-0.037088751792907715
1744896840475996400,9.426996337890625,9.559925079345703,2.043470621109009,-0.36610186100006104
1744896840492807700,9.4438076171875,9.601201057434082,2.1026928424835205,-0.5760720372200012
1744896840509618400,9.460618408203125,9.696913719177246,2.0129621028900146,-0.729810893535614
1744896840526430200,9.47743017578125,9.79801082611084,1.8795621395111084,-0.7304090857505798
1744896840543254300,9.494254150390624,9.846465110778809,1.8029918670654297,-0.7166503667831421
1744896840560050000,9.5110498046875,9.713065147399902,1.7688941955566406,-0.7304090857505798
1744896840576859400,9.527859375,9.506684303283691,1.8448662757873535,-0.7776673436164856
1744896840593671000,9.5446708984375,9.277571678161621,1.9100706577301025,-0.7381857633590698
1744896840610488300,9.56148828125,9.129216194152832,1.9806588888168335,-0.6705885529518127
1744896840627296500,9.578296630859375,9.090332984924316,2.0470597743988037,-0.617946445941925
1744896840644107000,9.59510693359375,8.98086166381836,2.0554347038269043,-0.527019202709198
1744896840660918500,9.61191845703125,9.023932456970215,2.0745773315429688,-0.46002015471458435
1744896840677764600,9.6287646484375,9.06700325012207,2.093719720840454,-0.41216370463371277
1744896840694555100,9.64555517578125,8.940183639526367,2.0961127281188965,-0.05383851006627083
1744896840711345400,9.662345458984374,8.799007415771484,2.1308085918426514,0.5198407173156738
1744896840728161300,9.679161376953125,9.007183074951172,2.091326951980591,0.9487541913986206
1744896840744971500,9.695971435546875,9.214759826660156,1.8436698913574219,1.0043872594833374
1744896840761766400,9.712766357421875,9.631709098815918,1.6929219961166382,1.031306505203247
1744896840778584000,9.729583984375,9.825528144836426,1.5254244804382324,1.2305090427398682
1744896840795407000,9.746406982421876,9.614361763000488,1.4021940231323242,1.7419748306274414
1744896840812219000,9.763218994140624,9.166903495788574,1.5547364950180054,2.2785654067993164
1744896840829030000,9.78002978515625,8.70209789276123,1.8376877307891846,2.557927370071411
1744896840845840600,9.796840576171874,8.516654014587402,2.438286304473877,2.8241288661956787
1744896840862651600,9.813651611328124,8.590831756591797,2.8767709732055664,2.2337000370025635
1744896840879463200,9.830463134765624,8.83250617980957,3.163909673690796,1.46500563621521
1744896840896291800,9.847291748046874,9.316454887390137,3.3068809509277344,1.0821540355682373
1744896840913081600,9.86408154296875,9.760921478271484,3.242872953414917,1.0666006803512573
1744896840929896400,9.880896484375,10.185050010681152,3.032902717590332,1.4273186922073364
1744896840946707700,9.897707763671875,10.637890815734863,2.799004316329956,1.8598214387893677
1744896840963519200,9.914519287109375,11.081161499023438,2.5704896450042725,2.1439690589904785
1744896840980325400,9.931325439453126,11.271390914916992,2.2265214920043945,2.328216314315796
1744896840997144600,9.94814453125,11.264810562133789,1.9914265871047974,2.4610180854797363
1744896841013965600,9.964965576171876,11.036894798278809,1.9130617380142212,2.5710878372192383
1744896841030781200,9.98178125,10.664212226867676,1.9441684484481812,2.6488547325134277
1744896841047587800,9.998587890625,10.299904823303223,2.0614166259765625,2.6123640537261963
1744896841064382000,10.0153818359375,10.01156997680664,2.213959217071533,2.4747767448425293
1744896841081192700,10.032192626953124,9.856036186218262,2.376671075820923,2.2085752487182617
1744896841097999400,10.048999267578125,9.78126049041748,2.5639095306396484,1.9806588888168335
1744896841114818300,10.065818359375,9.750154495239258,2.6847469806671143,1.7186448574066162
1744896841131629600,10.082629638671875,9.757930755615234,2.7625136375427246,1.4943177700042725
1744896841148440800,10.09944091796875,9.833304405212402,2.830111026763916,1.3561322689056396
1744896841165268700,10.116268798828125,10.128219604492188,2.8755745887756348,1.231107234954834
1744896841182074600,10.13307470703125,10.414162635803223,2.7972097396850586,1.043868899345398
1744896841198889500,10.149889404296875,10.529616355895996,2.692523717880249,1.0001999139785767
1744896841215701800,10.16670166015625,10.386645317077637,2.682354211807251,0.9619147181510925
1744896841232508200,10.183508056640624,10.185647964477539,2.7529425621032715,1.0061819553375244
1744896841249343200,10.20034326171875,9.93679428100586,2.794816732406616,0.9876375198364258
1744896841266132500,10.217132568359375,9.605986595153809,2.9216363430023193,1.0079765319824219
1744896841282926600,10.233926513671875,9.290133476257324,2.9970104694366455,0.9667003750801086
1744896841299728000,10.250727783203125,9.089137077331543,3.014956474304199,0.9337990283966064
1744896841316548600,10.267548583984375,9.200403213500977,2.819343328475952,0.9038887619972229
1744896841333365800,10.28436572265625,9.456435203552246,2.5196423530578613,0.9212366938591003
1744896841350173700,10.301173583984376,9.54078197479248,2.3234307765960693,1.1108678579330444
1744896841366985500,10.3179853515625,9.302696228027344,2.3635106086730957,1.4171491861343384
1744896841383809500,10.3348095703125,8.916254997253418,2.5124638080596924,1.724626898765564
1744896841400607500,10.351607421875,8.572287559509277,2.6769702434539795,1.922034740447998
1744896841417415200,10.368415283203126,8.160721778869629,2.7798616886138916,1.94297194480896
1744896841434233000,10.385233154296875,8.00518798828125,3.008974552154541,1.8867406845092773
1744896841451040000,10.4020400390625,7.878368377685547,3.1860432624816895,1.6683956384658813
1744896841467839000,10.4188388671875,7.889734268188477,3.3930225372314453,1.4063814878463745
1744896841484662500,10.43566259765625,8.015357971191406,3.5437703132629395,1.072582721710205
1744896841501491200,10.4524912109375,8.237890243530273,3.627519130706787,0.8045865893363953
1744896841518304000,10.469303955078125,8.404789924621582,3.5712878704071045,0.7232306599617004
1744896841535105300,10.486105224609375,8.549555778503418,3.476173162460327,0.8464609980583191
1744896841551917300,10.502917236328125,8.732605934143066,3.428316593170166,1.103689432144165
1744896841568718300,10.51971826171875,8.9581298828125,3.4097721576690674,1.217348575592041
1744896841585512700,10.5365126953125,9.178269386291504,3.377469062805176,1.2263215780258179
1744896841602340400,10.55334033203125,9.250054359436035,3.387040376663208,1.2837493419647217
1744896841619138600,10.570138671875,9.168100357055664,3.463012456893921,1.3459627628326416
1744896841635959600,10.58695947265625,9.05264663696289,3.562912940979004,1.3088740110397339
1744896841652780000,10.603780029296875,8.907880783081055,3.6819558143615723,1.1808580160140991
1744896841669598500,10.620598388671874,8.882157325744629,3.806980848312378,1.0666006803512573
1744896841686393000,10.63739306640625,8.919246673583984,3.865006685256958,0.9762716293334961
1744896841703221000,10.654220947265625,8.971290588378906,3.9086756706237793,0.914058268070221
1744896841720029000,10.67102880859375,8.984451293945312,3.937987804412842,0.8327022790908813
1744896841736846000,10.68784619140625,8.935996055603027,4.004986763000488,0.7232306599617004
1744896841753652500,10.704652587890624,8.872586250305176,4.0528435707092285,0.589830756187439
1744896841770469000,10.72146923828125,8.791230201721191,4.043870449066162,0.48035913705825806
1744896841787256600,10.738256591796874,8.738588333129883,3.9906299114227295,0.4325026869773865
1744896841804080000,10.755080078125,8.772088050842285,3.9385859966278076,0.3798605799674988
1744896841820881400,10.77188134765625,8.882157325744629,3.896711587905884,0.3361915946006775
1744896841837691000,10.78869091796875,9.016156196594238,3.8500516414642334,0.27337998151779175
1744896841854503400,10.80550341796875,9.087342262268066,3.841078519821167,0.23030917346477509
1744896841871319800,10.82231982421875,9.063413619995117,3.8979079723358154,0.2548356056213379
1744896841888118000,10.839117919921875,8.995218276977539,4.016951084136963,0.24586252868175507
1744896841904940500,10.8559404296875,8.95095157623291,4.146163463592529,0.21774685382843018
1744896841921739500,10.872739501953125,8.930612564086914,4.246662139892578,0.19920247793197632
1744896841938561300,10.889561279296874,8.906085968017578,4.3519463539123535,0.15194423496723175
1744896841955373600,10.90637353515625,8.885149002075195,4.490729808807373,0.09511470049619675
1744896841972184800,10.923184814453125,8.850452423095703,4.600799560546875,0.04307080805301666
1744896841988996000,10.93999609375,8.825926780700684,4.648656368255615,0.005383851006627083
1744896842005820400,10.9568203125,8.797810554504395,4.6199421882629395,0.029312077909708023
1744896842022615800,10.97361572265625,8.73619556427002,4.557130813598633,0.06281159073114395
1744896842039443500,10.990443359375,8.598608016967773,4.48414945602417,0.12921242415905
1744896842056233500,11.0072333984375,8.456833839416504,4.401597023010254,0.23449662327766418
1744896842073055000,11.024054931640626,8.34855842590332,4.280759811401367,0.32961133122444153
1744896842089862400,11.0408623046875,8.322237014770508,4.122833251953125,0.41515472531318665
1744896842106673700,11.057673583984375,8.390432357788086,4.00319242477417,0.4911268353462219
1744896842123484200,11.074484130859375,8.520243644714355,3.912863254547119,0.5282155871391296
1744896842140296200,11.091296142578125,8.682954788208008,3.8847475051879883,0.6089733839035034
1744896842157103400,11.108103271484374,8.860024452209473,3.885345697402954,0.6897311210632324
1744896842173932000,11.12493212890625,9.098708152770996,3.920041799545288,0.7226324677467346
1744896842190746600,11.14174658203125,9.298508644104004,3.978665828704834,0.6843472719192505
1744896842207553500,11.158553466796874,9.402596473693848,4.060619831085205,0.6364908218383789
1744896842224390000,11.175389892578124,9.387042999267578,4.1659040451049805,0.5892325639724731
1744896842241176000,11.192176025390625,9.309874534606934,4.247260093688965,0.5228317379951477
1744896842257971200,11.20897119140625,9.184849739074707,4.29451847076416,0.494716078042984
1744896842274792400,11.22579248046875,9.036494255065918,4.303491592407227,0.4618147611618042
1744896842291599400,11.242599365234375,8.950352668762207,4.350749969482422,0.44327038526535034
1744896842308407300,11.2594072265625,8.912068367004395,4.326821327209473,0.4097708761692047
1744896842325217800,11.2762177734375,8.931808471679688,4.2454657554626465,0.39960137009620667
1744896842342029000,11.293029052734376,8.971290588378906,4.135993957519531,0.42771705985069275
1744896842358832400,11.309832275390624,8.986844062805176,4.035495281219482,0.45104706287384033
1744896842375657700,11.32665771484375,9.025128364562988,3.968496322631836,0.43190449476242065
1744896842392459300,11.343459228515625,8.997013092041016,3.9589250087738037,0.4366901218891144
1744896842409276700,11.360276611328125,8.930013656616211,3.996612071990967,0.48454657196998596
1744896842426077200,11.3770771484375,8.852845191955566,4.053441524505615,0.5138586759567261
1744896842442896000,11.393895751953124,8.862417221069336,4.096512317657471,0.5186443328857422
1744896842459713800,11.4107138671875,8.904889106750488,4.106681823730469,0.45643091201782227
1744896842476520200,11.427520263671875,8.971290588378906,4.131208419799805,0.4133601188659668
1744896842493341700,11.444341796875,9.033503532409668,4.135993957519531,0.4181457459926605
1744896842510154800,11.46115478515625,9.129216194152832,4.074378967285156,0.43190449476242065
1744896842526948400,11.4779482421875,9.120841979980469,3.9834516048431396,0.43130627274513245
1744896842543756800,11.4947568359375,9.073583602905273,3.930809497833252,0.4217349886894226
1744896842560575700,11.51157568359375,9.001200675964355,3.9499518871307373,0.3840480446815491
1744896842577385000,11.528385009765625,8.905488014221191,3.9828531742095947,0.34636107087135315
1744896842594195700,11.54519580078125,8.828319549560547,4.030111312866211,0.3080759048461914
1744896842611007000,11.562007080078125,8.779864311218262,4.111467361450195,0.24167509377002716
1744896842627810800,11.578810791015625,8.759525299072266,4.197608947753906,0.22791635990142822
1744896842644646400,11.595646484375,8.83071231842041,4.2556352615356445,0.2470589429140091
1744896842661419800,11.612419677734374,8.968897819519043,4.284946918487549,0.23270200192928314
1744896842678253000,11.629253173828126,9.169296264648438,4.324428558349609,0.2273181527853012
1744896842695076000,11.646076171875,9.355338096618652,4.3447675704956055,0.24167509377002716
1744896842711872000,11.6628720703125,9.41755199432373,4.320241451263428,0.3080759048461914
1744896842728698000,11.679697998046874,9.351749420166016,4.305285930633545,0.39421752095222473
1744896842745509600,11.696509521484375,9.155537605285645,4.361517429351807,0.47617170214653015
1744896842762303200,11.71330322265625,8.897710800170898,4.412364959716797,0.5437689423561096
1744896842779118300,11.730118408203126,8.677571296691895,4.491926193237305,0.6209374666213989
1744896842795929000,11.74692919921875,8.586644172668457,4.543970108032227,0.6550351977348328
1744896842812740000,11.763739990234376,8.668000221252441,4.553541660308838,0.6789634227752686
1744896842829551000,11.780551025390626,8.761918067932129,4.584050178527832,0.5018945336341858
1744896842846362600,11.797362548828126,8.890532493591309,4.566103935241699,0.38703906536102295
1744896842863173000,11.814173095703126,8.86660385131836,4.59421968460083,0.4492524564266205
1744896842879984400,11.830984375,8.73499870300293,4.463212490081787,0.625723123550415
1744896842896796000,11.8477958984375,8.894720077514648,4.362713813781738,0.849452018737793
1744896842913603600,11.864603515625,9.117252349853516,4.091128349304199,0.8715856671333313
1744896842930420700,11.881420654296875,9.348159790039062,3.934398651123047,0.9367900490760803
1744896842947229400,11.8982294921875,9.626325607299805,3.844667673110962,1.0169496536254883
1744896842964059100,11.91505908203125,9.750752449035645,3.769293785095215,0.9254241585731506
1744896842980863200,11.93186328125,9.69930648803711,3.6263227462768555,0.844068169593811
1744896842997669400,11.94866943359375,9.55214786529541,3.525225877761841,0.8201399445533752
1744896843014485800,11.96548583984375,9.29910659790039,3.513859987258911,0.8159525394439697
1744896843031281400,11.982281494140626,8.892327308654785,3.5928232669830322,0.8027920126914978
1744896843048081400,11.999081298828125,8.3898344039917,3.6957144737243652,0.7615157961845398
1744896843064909600,12.01590966796875,8.03210735321045,3.7357943058013916,0.9541380405426025
1744896843081715700,12.0327158203125,7.895118236541748,3.6957144737243652,1.1928220987319946
1744896843098528000,12.049528076171875,7.934001445770264,3.6568312644958496,1.2831511497497559
1744896843115343400,12.06634326171875,8.081758499145508,3.662813186645508,1.2305090427398682
1744896843132167700,12.083167724609375,8.229515075683594,3.668795347213745,1.1778669357299805
1744896843148971800,12.0999716796875,8.291728973388672,3.6502509117126465,1.1150553226470947
1744896843165790500,12.11679052734375,8.459226608276367,3.6083765029907227,1.095314621925354
1744896843182594000,12.133593994140625,8.59322452545166,3.5467612743377686,1.1234302520751953
1744896843199413200,12.150413330078125,8.803792953491211,3.514458179473877,1.098903775215149
1744896843216220700,12.167220703125,8.927022933959961,3.572484254837036,1.079761266708374
1744896843233031200,12.18403125,8.994022369384766,3.5401811599731445,0.9744769930839539
1744896843249842400,12.200842529296875,9.10827922821045,3.555734395980835,0.9170492887496948
1744896843266654000,12.217654052734375,9.155537605285645,3.5611183643341064,0.8500502705574036
1744896843283466200,12.23446630859375,9.135796546936035,3.6227335929870605,0.8500502705574036
1744896843300257000,12.251257080078124,9.04845905303955,3.76570463180542,0.8703892230987549
1744896843317073700,12.26807373046875,8.951549530029297,3.8799619674682617,0.8279166221618652
1744896843333880800,12.284880859375,8.784649848937988,3.8985064029693604,0.8093722462654114
1744896843350698800,12.30169873046875,8.760722160339355,3.9080774784088135,0.8189435601234436
1744896843367506700,12.318506591796876,8.875576972961426,3.8937206268310547,0.8757730722427368
1744896843384318000,12.33531787109375,9.043673515319824,3.813561201095581,0.9134600162506104
1744896843401128700,12.352128662109376,9.321240425109863,3.7669010162353516,0.9744769930839539
1744896843417925600,12.368925537109375,9.503094673156738,3.6915271282196045,0.973878800868988
1744896843434752300,12.385752197265624,9.623334884643555,3.625126361846924,0.9349954724311829
1744896843451580200,12.402580078125,9.590433120727539,3.5341989994049072,0.9439685344696045
1744896843468386800,12.41938671875,9.415159225463867,3.432504177093506,1.0157532691955566
1744896843485202700,12.43620263671875,9.258428573608398,3.3930225372314453,1.0923235416412354
1744896843502004500,12.45300439453125,9.08674430847168,3.372683525085449,1.1599208116531372
1744896843518816500,12.46981640625,9.030512809753418,3.3194432258605957,1.1976077556610107
1744896843535618000,12.4866181640625,9.026325225830078,3.266801118850708,1.207179069519043
1744896843552428800,12.5034287109375,9.087940216064453,3.2817561626434326,1.1736794710159302
1744896843569242000,12.5202421875,9.121439933776855,3.2721848487854004,1.144965648651123
1744896843586040800,12.537040771484374,9.111868858337402,3.291327476501465,1.1784651279449463
1744896843602852600,12.5538525390625,9.097511291503906,3.3242287635803223,1.23589289188385
1744896843619670000,12.570669921875,9.154341697692871,3.3535408973693848,1.207179069519043
1744896843636504800,12.5875048828125,9.263813018798828,3.359523057937622,1.1018948554992676
1744896843653311000,12.60431103515625,9.396614074707031,3.379862070083618,1.0061819553375244
1744896843670119700,12.62111962890625,9.519845008850098,3.390629768371582,0.8961120843887329
1744896843686914000,12.6379140625,9.615557670593262,3.37687087059021,0.8141579031944275
1744896843703709700,12.654709716796875,9.649057388305664,3.363112211227417,0.8141579031944275
1744896843720551400,12.671551513671876,9.629914283752441,3.33858585357666,0.8668000102043152
1744896843737372000,12.688371826171876,9.515657424926758,3.3332018852233887,0.9050851464271545
1744896843754164700,12.705164794921876,9.396016120910645,3.3708889484405518,0.8961120843887329
1744896843770982100,12.721982177734375,9.295517921447754,3.394218921661377,0.8919246196746826
1744896843787786500,12.738786376953126,9.262018203735352,3.4271202087402344,0.8919246196746826
1744896843804595000,12.755594970703125,9.30030345916748,3.3750762939453125,0.8679963946342468
1744896843821406500,12.772406494140625,9.363115310668945,3.303889751434326,0.8482556343078613
1744896843838217500,12.789217529296875,9.397212982177734,3.2129626274108887,0.8428717851638794
1744896843855025700,12.806025634765625,9.397810935974121,3.145963668823242,0.8620143532752991
1744896843871842600,12.822842529296874,9.370293617248535,3.0837502479553223,0.8949156403541565
1744896843888638700,12.839638671875,9.346963882446289,3.0215368270874023,0.914058268070221
1744896843905450500,12.856450439453125,9.380462646484375,2.9976086616516113,0.8895317912101746
1744896843922258200,12.873258056640625,9.361320495605469,2.9976086616516113,0.8949156403541565
1744896843939104300,12.890104248046875,9.346364974975586,3.064009428024292,0.9092726111412048
1744896843955904800,12.90690478515625,9.355338096618652,3.150151014328003,0.9571290612220764
1744896843972723700,12.9237236328125,9.406784057617188,3.2554352283477783,0.9577272534370422
1744896843989523700,12.940523681640625,9.410971641540527,3.2895328998565674,0.8668000102043152
1744896844006342000,12.957341796875,9.376275062561035,3.4139597415924072,0.7962117195129395
1744896844023126800,12.974126708984375,9.317651748657227,3.5048868656158447,0.7824530005455017
1744896844039950600,12.99095068359375,9.326624870300293,3.5814573764801025,0.7824530005455017
1744896844056761900,13.007761962890624,9.369695663452148,3.5814573764801025,0.763310432434082
1744896844073569300,13.0245693359375,9.389435768127441,3.562314748764038,0.8350951075553894
1744896844090387200,13.04138720703125,9.380462646484375,3.528217077255249,0.9732806086540222
1744896844107195000,13.05819482421875,9.413962364196777,3.566502094268799,1.0211371183395386
1744896844124003600,13.075003662109374,9.371489524841309,3.504288673400879,0.9397810697555542
1744896844140834000,13.091833984375,9.279366493225098,3.5473594665527344,0.8303094506263733
1744896844157609700,13.108609619140625,9.17886734008789,3.5946178436279297,0.8309076428413391
1744896844174453000,13.125452880859376,9.097511291503906,3.589233875274658,0.8404789566993713
1744896844191248600,13.14224853515625,9.046066284179688,3.545564889907837,0.8979067206382751
1744896844208058400,13.159058349609374,9.032905578613281,3.411566972732544,0.9403793215751648
1744896844224885200,13.17588525390625,8.996415138244629,3.253042459487915,0.9876375198364258
1744896844241686500,13.1926865234375,8.968897819519043,3.1381869316101074,1.0348957777023315
1744896844258492200,13.2094921875,8.94137954711914,3.0376882553100586,1.0151549577713013
1744896844275297500,13.226297607421875,8.851051330566406,3.0035905838012695,1.0342975854873657
1744896844292114200,13.2431142578125,8.717052459716797,3.022135019302368,0.98703932762146
1744896844308928300,13.25992822265625,8.754739761352539,3.074777126312256,0.9684949517250061
1744896844325736400,13.276736328125,8.860024452209473,3.056830883026123,0.9583254456520081
1744896844342553300,13.29355322265625,8.821739196777344,3.1178479194641113,1.1162517070770264
1744896844359339300,13.31033935546875,8.774480819702148,3.163909673690796,1.3507484197616577
1744896844376172500,13.327172607421875,8.69372272491455,3.2207393646240234,1.470389485359192
1744896844392984300,13.343984375,8.879166603088379,3.2745778560638428,1.4081761837005615
1744896844409794800,13.360794921875,9.250652313232422,3.2961132526397705,1.3262219429016113
1744896844426626300,13.377626220703124,9.556933403015137,3.1932218074798584,1.2245270013809204
1744896844443424500,13.394424560546875,9.795618057250977,3.142374277114868,1.1042876243591309
1744896844460232000,13.41123193359375,9.986445426940918,3.077169895172119,0.9936196208000183
1744896844477052400,13.428052490234375,10.14437198638916,3.0113673210144043,0.9020941257476807
1744896844493860000,13.444860107421874,10.130613327026367,2.8971099853515625,0.8015955686569214
1744896844510660000,13.46166015625,9.900303840637207,2.939582586288452,0.7112665176391602
1744896844527475200,13.47847509765625,9.593423843383789,3.019742250442505,0.5886343717575073
1744896844544283400,13.495283447265624,9.42054271697998,3.0855448246002197,0.5126622319221497
1744896844561094700,13.5120947265625,9.234500885009766,3.0418758392333984,0.4366901218891144
1744896844577893000,13.52889306640625,9.143573760986328,3.060420274734497,0.47976094484329224
1744896844594714400,13.54571435546875,9.057432174682617,3.074777126312256,0.4372883439064026
1744896844611547600,13.562547607421875,9.032307624816895,3.13220477104187,0.3278166949748993
1744896844628349200,13.57934912109375,9.007781028747559,3.208775281906128,0.3044866919517517
1744896844645159700,13.59615966796875,8.993423461914062,3.2231321334838867,0.2997010350227356
1744896844661963000,13.612962890625,8.96949577331543,3.232703447341919,0.2709871530532837
1744896844678786300,13.629786376953126,8.911469459533691,3.284747362136841,0.2667997181415558
1744896844695593700,13.64659375,8.834300994873047,3.342175006866455,0.267397940158844
1744896844712416000,13.663416015625,8.824131965637207,3.3996028900146484,0.243469700217247
1744896844729220000,13.68022021484375,9.015557289123535,3.3577284812927246,0.1950150430202484
1744896844746029000,13.697029052734376,9.250054359436035,3.2350962162017822,0.13160525262355804
1744896844762846700,13.7138466796875,9.442676544189453,3.0975089073181152,0.1495514214038849
1744896844779643600,13.7306435546875,9.5533447265625,3.002394199371338,0.18723836541175842
1744896844796447200,13.747447265625,9.54915714263916,2.977867841720581,0.22073788940906525
1744896844813261000,13.764260986328125,9.530014038085938,3.001796007156372,0.19680966436862946
1744896844830072300,13.781072265625,9.438488960266113,3.039483070373535,0.18783657252788544
1744896844846883800,13.7978837890625,9.314062118530273,3.0628130435943604,0.1740778535604477
1744896844863692000,13.814692138671875,9.184849739074707,3.10528564453125,0.16031911969184875
1744896844880497200,13.8314970703125,9.102895736694336,3.153141975402832,0.14117653667926788
1744896844897316900,13.84831689453125,9.135796546936035,3.1962127685546875,0.07477571070194244
1744896844914147800,13.86514794921875,9.197412490844727,3.2063822746276855,0.03170489892363548
1744896844930934500,13.8819345703125,9.283554077148438,3.202194929122925,0.035892341285943985
1744896844947764700,13.8987646484375,9.34157943725586,3.178266763687134,0.10289137065410614
1744896844964575000,13.915574951171875,9.422337532043457,3.198007345199585,0.12143574655056
1744896844981409800,13.932409912109375,9.493523597717285,3.2416765689849854,0.05503492057323456
1744896844998185700,13.949185791015625,9.55513858795166,3.2614171504974365,-0.02153540402650833
1744896845014994200,13.965994140625,9.646066665649414,3.242872953414917,-0.026919255033135414
1744896845031805400,13.982805419921876,9.68913745880127,3.1854450702667236,-0.008374879136681557
1744896845048616700,13.99961669921875,9.651450157165527,3.1752755641937256,0.039481572806835175
1744896845065420500,14.016420654296875,9.498908042907715,3.11246395111084,-0.01734796352684498
1744896845082239200,14.0332392578125,9.332008361816406,3.1591241359710693,0.0975075215101242
1744896845099052800,14.050052734375,9.274580955505371,3.1680972576141357,0.09810572862625122
1744896845115874800,14.066874755859375,9.198010444641113,3.1489546298980713,0.02632104977965355
1744896845132686000,14.08368603515625,9.17467975616455,3.0867412090301514,0.064606212079525
1744896845149496800,14.100496826171875,9.147162437438965,3.0143582820892334,0.10707881301641464
1744896845166307800,14.117307861328126,9.052047729492188,3.0041887760162354,0.14117653667926788
1744896845183111400,14.134111328125,9.018548965454102,3.008974552154541,0.1698904037475586
1744896845199939000,14.15093896484375,9.10409164428711,3.056830883026123,0.20757736265659332
1744896845216739800,14.16773974609375,9.22851848602295,3.0484559535980225,0.1740778535604477
1744896845233554400,14.184554443359374,9.404989242553711,3.0352954864501953,0.11126625537872314
1744896845250361900,14.20136181640625,9.53360366821289,3.035893678665161,0.09212367236614227
1744896845267174700,14.218174560546874,9.580862045288086,3.0693931579589844,0.08733802288770676
1744896845283981300,14.234981201171875,9.714859962463379,3.1130621433258057,0.13938191533088684
1744896845300784000,14.2517841796875,9.915857315063477,3.0664021968841553,0.1339980661869049
1744896845317591600,14.268591552734375,10.16889762878418,3.0251259803771973,0.06640082597732544
1744896845334405400,14.2854052734375,10.210772514343262,3.0311081409454346,-0.06281159073114395
1744896845351216000,14.302216064453125,10.114460945129395,3.0933215618133545,-0.16689938306808472
1744896845368015000,14.31901513671875,9.966106414794922,3.149552822113037,-0.1381855010986328
1744896845384838700,14.335838623046875,9.894919395446777,3.1106693744659424,-0.08075776696205139
1744896845401666300,14.352666259765625,9.820143699645996,2.985046148300171,0.02392822690308094
1744896845418478300,14.369478271484375,9.726225852966309,2.8695926666259766,0.11485548317432404
1744896845435282400,14.386282470703126,9.626325607299805,2.8450660705566406,0.15314064919948578
1744896845452091000,14.4030908203125,9.534201622009277,2.978466033935547,0.12023933976888657
1744896845468914700,14.419914794921874,9.498309135437012,3.1561331748962402,-0.08434699475765228
1744896845485725400,14.436725341796874,9.467203140258789,3.2721848487854004,-0.389431893825531
1744896845502503000,14.4535029296875,9.332008361816406,3.3439695835113525,-0.5318048596382141
1744896845519327700,14.47032763671875,9.140582084655762,3.442673683166504,-0.44027936458587646
1744896845536142000,14.48714208984375,9.068199157714844,3.576073408126831,-0.3535395562648773
1744896845552949200,14.50394921875,9.062217712402344,3.5958142280578613,-0.5060819983482361
1744896845569772300,14.520772216796875,9.023932456970215,3.6293137073516846,-0.5389832854270935
1744896845586558700,14.537558837890625,8.95693302154541,3.6287155151367188,-0.49591249227523804
1744896845603400200,14.554400146484374,8.82951545715332,3.555734395980835,-0.381655216217041
1744896845620204000,14.5712041015625,8.635697364807129,3.4103705883026123,-0.28594231605529785
1744896845637023000,14.58802294921875,8.645866394042969,3.2961132526397705,-0.31046873331069946
1744896845653825800,14.60482568359375,8.662017822265625,3.142972469329834,-0.2727817893028259
1744896845670645000,14.62164501953125,8.658429145812988,3.0233314037323,-0.21595224738121033
1744896845687433500,14.63843359375,8.730812072753906,2.96111798286438,-0.14476576447486877
1744896845704264700,14.6552646484375,8.980263710021973,2.909074068069458,-0.05024927482008934
1744896845721077200,14.6720771484375,9.18305492401123,2.761317253112793,0.08195417374372482
1744896845737866500,14.688866455078125,9.22253704071045,2.6841487884521484,0.24406790733337402
1744896845754696200,14.7056962890625,9.1986083984375,2.703291416168213,0.2871387302875519
1744896845771508200,14.72250830078125,9.22134017944336,2.822932481765747,0.21595224738121033
1744896845788288500,14.73928857421875,9.277571678161621,2.9001009464263916,0.18305093050003052
1744896845805116700,14.75611669921875,9.31585693359375,2.933600664138794,0.2638086974620819
1744896845821927000,14.772927001953125,9.29611587524414,3.004786968231201,0.3122633695602417
1744896845838738400,14.789738525390625,9.290133476257324,3.1387851238250732,0.28893333673477173
1744896845855546400,14.80654638671875,9.308079719543457,3.2159535884857178,0.24646073579788208
1744896845872363800,14.82336376953125,9.350552558898926,3.263810157775879,0.2273181527853012
1744896845889169700,14.840169677734375,9.426525115966797,3.297907829284668,0.20817556977272034
1744896845905996000,14.85699609375,9.416953086853027,3.3164522647857666,0.2273181527853012
1744896845922790700,14.873790771484375,9.33559799194336,3.3541390895843506,0.26560330390930176
1744896845939619000,14.890619140625,9.321240425109863,3.387638568878174,0.30927231907844543
1744896845956427000,14.907427001953126,9.369096755981445,3.3780672550201416,0.28953152894973755
1744896845973243600,14.92424365234375,9.464211463928223,3.360121250152588,0.2273181527853012
1744896845990029800,14.94102978515625,9.455238342285156,3.3266217708587646,0.2225325107574463
1744896846006849500,14.957849609375,9.317651748657227,3.311068296432495,0.31824541091918945
1744896846023644200,14.97464404296875,9.231510162353516,3.3439695835113525,0.34217363595962524
1744896846040474600,14.991474609375,9.163912773132324,3.3439695835113525,0.28534409403800964
1744896846057278500,15.008278564453125,9.135796546936035,3.3242287635803223,0.2805584669113159
1744896846074094000,15.025093994140626,9.135796546936035,3.31465744972229,0.33798620104789734
1744896846090921200,15.041921142578126,9.18425178527832,3.2955150604248047,0.34695929288864136
1744896846107713000,15.058713134765625,9.289535522460938,3.2338998317718506,0.3367897868156433
1744896846124543700,15.075543701171876,9.31884765625,3.181257724761963,0.3846462368965149
1744896846141352000,15.09235205078125,9.309874534606934,3.1764719486236572,0.42293140292167664
1744896846158145800,15.109145751953125,9.19442081451416,3.2237303256988525,0.39481574296951294
1744896846174975200,15.125975341796876,9.189037322998047,3.281157970428467,0.41874396800994873
1744896846191784700,15.14278466796875,9.232108116149902,3.305086374282837,0.44745782017707825
1744896846208580400,15.159580322265626,9.313464164733887,3.276970624923706,0.42293140292167664
1744896846225390000,15.17639013671875,9.379864692687988,3.315255880355835,0.4612165689468384
1744896846242214000,15.1932138671875,9.370891571044922,3.315255880355835,0.50907301902771
1744896846259022600,15.210022705078124,9.452845573425293,3.2721848487854004,0.5754738450050354
1744896846275823900,15.226823974609376,9.606584548950195,3.153141975402832,0.584446907043457
1744896846292637400,15.243637451171875,9.732208251953125,3.0011978149414062,0.5545366406440735
1744896846309449000,15.260448974609375,9.6795654296875,2.929413080215454,0.4827519655227661
1744896846326260000,15.277260009765625,9.588638305664062,2.9718856811523438,0.4833501875400543
1744896846343071200,15.2940712890625,9.29731273651123,3.008376359939575,0.5078766345977783
1744896846359869000,15.310868896484376,9.072985649108887,3.050250768661499,0.5994020700454712
1744896846376693200,15.327693359375,8.82951545715332,3.119642496109009,0.7292127013206482
1744896846393499100,15.3444990234375,8.704490661621094,3.2620155811309814,0.8309076428413391
1744896846410338300,15.36133837890625,8.769695281982422,3.410968780517578,0.8069794178009033
1744896846427139800,15.378139892578124,9.026325225830078,3.494119167327881,0.6777670383453369
1744896846443947300,15.394947265625,9.3457670211792,3.510270833969116,0.6101697683334351
1744896846460755700,15.411755615234375,9.603593826293945,3.459423303604126,0.5952146053314209
1744896846477571000,15.428571044921876,9.78126049041748,3.4031920433044434,0.5802595019340515
1744896846494370600,15.44537060546875,9.824331283569336,3.3415768146514893,0.5509474277496338
1744896846511182000,15.46218212890625,9.857831001281738,3.322434186935425,0.5078766345977783
1744896846527981300,15.478981201171875,9.80100154876709,3.260220766067505,0.4983053207397461
1744896846544804600,15.4958046875,9.615557670593262,3.211168050765991,0.5078766345977783
1744896846561605000,15.512605224609375,9.452845573425293,3.2440693378448486,0.503689169883728
1744896846578425600,15.529425537109375,9.270393371582031,3.2763724327087402,0.4570291340351105
1744896846595255300,15.54625537109375,9.107681274414062,3.2997024059295654,0.4145565330982208
1744896846612062500,15.5630625,8.983254432678223,3.308675527572632,0.39541393518447876
1744896846628874800,15.579874755859375,8.854640007019043,3.3409786224365234,0.4342973232269287
1744896846645683000,15.596682861328125,8.73918628692627,3.4121651649475098,0.47796630859375
1744896846662481400,15.6134814453125,8.685946464538574,3.497708559036255,0.4785645306110382
1744896846679307000,15.63030712890625,8.742775917053223,3.5605201721191406,0.43549370765686035
1744896846696117500,15.647117431640625,8.846863746643066,3.59043025970459,0.3684946894645691
1744896846712929500,15.663929443359375,9.042476654052734,3.5916268825531006,0.33439695835113525
1744896846729713200,15.680713134765625,9.22433090209961,3.5401811599731445,0.3002992272377014
1744896846746555400,15.697555419921875,9.34875774383545,3.5264222621917725,0.30508488416671753
1744896846763344600,15.7143447265625,9.363115310668945,3.5270206928253174,0.2763710021972656
1744896846780159500,15.731159423828124,9.347561836242676,3.594019651412964,0.18544375896453857
1744896846796971000,15.747970947265625,9.313464164733887,3.617947816848755,0.12382857501506805
1744896846813779200,15.764779296875,9.275178909301758,3.6323046684265137,0.12382857501506805
1744896846830595600,15.781595703125,9.251250267028809,3.64127779006958,0.11904292553663254
1744896846847404300,15.798404296875,9.232108116149902,3.6508491039276123,0.12442677468061447
1744896846864215000,15.815215087890625,9.193822860717773,3.6364922523498535,0.11006984114646912
1744896846881026600,15.832026611328125,9.145368576049805,3.6747772693634033,0.038285162299871445
1744896846897825000,15.848824951171874,9.107083320617676,3.689134359359741,0.0005982056609354913
1744896846914662100,15.865662109375,9.05444049835205,3.6604204177856445,-0.008973085321485996
1744896846931476700,15.882476806640625,9.002396583557129,3.6502509117126465,0.03409772366285324
1744896846948268300,15.899268310546875,9.002396583557129,3.6406795978546143,0.06281159073114395
1744896846965095000,15.916094970703124,9.007781028747559,3.630510091781616,0.10049854964017868
1744896846981889500,15.9328896484375,8.97966480255127,3.5922250747680664,0.12442677468061447
1744896846998705000,15.949704833984375,8.965906143188477,3.5539398193359375,0.17228323221206665
1744896847015514400,15.966514404296875,8.947361946105957,3.5294134616851807,0.22971096634864807
1744896847032326000,15.983325927734375,8.971290588378906,3.5437703132629395,0.24825534224510193
1744896847049137200,16.00013720703125,9.042476654052734,3.5300116539001465,0.23389841616153717
1744896847065948400,16.016948486328126,9.176474571228027,3.5018959045410156,0.20937198400497437
1744896847082772000,16.03377197265625,9.33021354675293,3.4546377658843994,0.251844584941864
1744896847099567900,16.05056787109375,9.449256896972656,3.4552359580993652,0.2805584669113159
1744896847116379400,16.06737939453125,9.497113227844238,3.494119167327881,0.26141586899757385
1744896847133190000,16.08418994140625,9.56770133972168,3.55214524269104,0.1944168359041214
1744896847149993200,16.1009931640625,9.543174743652344,3.5856447219848633,0.16151553392410278
1744896847166814500,16.117814453125,9.442676544189453,3.5946178436279297,0.1663011759519577
1744896847183612400,16.1346123046875,9.356534957885742,3.6466617584228516,0.18125630915164948
1744896847200437000,16.15143701171875,9.270393371582031,3.6747772693634033,0.20518454909324646
1744896847217251600,16.16825146484375,9.232706069946289,3.6741790771484375,0.23389841616153717
1744896847242464500,16.193464599609374,9.204590797424316,3.5928232669830322,0.1860419660806656
1744896847259276500,16.210276611328126,9.180662155151367,3.5784661769866943,0.18125630915164948
1744896847276092200,16.227092041015624,9.109476089477539,3.52103853225708,0.15732808411121368
1744896847292898800,16.24389892578125,9.062217712402344,3.4821550846099854,0.18125630915164948
1744896847309696000,16.260696044921875,8.995817184448242,3.415156126022339,0.20518454909324646
1744896847326521000,16.27752099609375,8.97248649597168,3.3954153060913086,0.24287149310112
1744896847343331000,16.2943310546875,8.96231746673584,3.438486099243164,0.2626122832298279
1744896847360142600,16.311142578125,8.961718559265137,3.524627685546875,0.2721835672855377
1744896847376940300,16.327940185546876,8.975478172302246,3.572484254837036,0.2584248483181
1744896847393762600,16.344762451171874,8.999405860900879,3.6059837341308594,0.2632105052471161
1744896847410595600,16.361595703125,9.07119083404541,3.610769271850586,0.2961117923259735
1744896847427401700,16.378401611328126,9.19023323059082,3.635295867919922,0.31046873331069946
1744896847444211200,16.395211181640626,9.32423210144043,3.6221351623535156,0.2955136001110077
1744896847461004000,16.412004150390626,9.45763111114502,3.651447296142578,0.3194418251514435
1744896847477797600,16.428797607421874,9.500701904296875,3.6323046684265137,0.3002992272377014
1744896847494632000,16.4456318359375,9.500103950500488,3.6705899238586426,0.30987054109573364
1744896847511442000,16.46244189453125,9.40917682647705,3.680161237716675,0.25722843408584595
1744896847528254200,16.479254150390624,9.29910659790039,3.7082769870758057,0.243469700217247
1744896847545064200,16.496064208984375,9.169894218444824,3.7124643325805664,0.24406790733337402
1744896847561879600,16.512879638671876,9.079565048217773,3.6783666610717773,0.1866401731967926
1744896847578683600,16.52968359375,9.041280746459961,3.6640095710754395,0.19142581522464752
1744896847595509500,16.546509521484374,9.017950057983398,3.6113674640655518,0.2105683982372284
1744896847612322300,16.563322265625,9.004191398620605,3.562912940979004,0.243469700217247
1744896847629134300,16.58013427734375,8.937790870666504,3.548556089401245,0.22971096634864807
1744896847645944600,16.596944580078127,8.937192916870117,3.5437703132629395,0.20099709928035736
1744896847662756900,16.6137568359375,8.889336585998535,3.562912940979004,0.19142581522464752
1744896847679580000,16.630579833984374,8.841479301452637,3.5910286903381348,0.23449662327766418
1744896847696378400,16.64737841796875,8.865407943725586,3.638286828994751,0.30149564146995544
1744896847713188900,16.66418896484375,9.008378982543945,3.672982692718506,0.2727817893028259
1744896847729984300,16.680984375,9.203393936157227,3.6843485832214355,0.16749759018421173
1744896847746797000,16.697797119140624,9.360722541809082,3.704089403152466,0.1094716340303421
1744896847763606000,16.71460595703125,9.412766456604004,3.7094733715057373,0.09990034252405167
1744896847780419300,16.73141943359375,9.42173957824707,3.762115478515625,0.11485548317432404
1744896847797234700,16.748234619140625,9.369096755981445,3.7573297023773193,0.07178468257188797
1744896847814041600,16.76504150390625,9.216554641723633,3.7663028240203857,0.053240302950143814
1744896847830853400,16.781853271484376,9.083154678344727,3.7363924980163574,0.07238288223743439
1744896847847652600,16.798652587890626,8.911469459533691,3.730410575866699,0.1585244983434677
1744896847864476000,16.815475830078125,8.793025016784668,3.7196428775787354,0.24047867953777313
1744896847881281500,16.832281494140624,8.758927345275879,3.733999729156494,0.2356930375099182
1744896847898102500,16.8491025390625,8.806783676147461,3.7148571014404297,0.22133609652519226
1744896847914925300,16.86592529296875,8.936594009399414,3.6681971549987793,0.2350948303937912
1744896847931730000,16.88272998046875,9.0514497756958,3.620340585708618,0.27756741642951965
1744896847948531700,16.89953173828125,9.156734466552734,3.6113674640655518,0.28175488114356995
1744896847965339400,16.91633935546875,9.247661590576172,3.631108283996582,0.28175488114356995
1744896847982152400,16.93315234375,9.309276580810547,3.6508491039276123,0.2386840581893921
1744896847998964700,16.94996484375,9.33739185333252,3.627519130706787,0.1908276081085205
1744896848015774700,16.966774658203125,9.270991325378418,3.617349624633789,0.19561325013637543
1744896848032586800,16.983586669921873,9.19442081451416,3.631108283996582,0.22432711720466614
1744896848049397000,17.00039697265625,9.122636795043945,3.644867181777954,0.22013968229293823
1744896848066226400,17.017226318359373,9.117850303649902,3.6735808849334717,0.23449662327766418
1744896848083028200,17.0340283203125,9.141778945922852,3.6741790771484375,0.23449662327766418
1744896848099848700,17.0508486328125,9.203393936157227,3.7124643325805664,0.2153540402650833
1744896848116656000,17.06765625,9.265008926391602,3.7561333179473877,0.1818545162677765
1744896848133466000,17.084466064453125,9.264410972595215,3.799204111099243,0.12442677468061447
1744896848150278100,17.101278076171877,9.372686386108398,3.8769710063934326,0.05802594870328903
1744896848167085300,17.118085205078124,9.4061861038208,3.9008991718292236,0.03888336941599846
1744896848183900000,17.13489990234375,9.377471923828125,3.896113395690918,0.03888336941599846
1744896848200712700,17.151712646484373,9.272188186645508,3.8907296657562256,0.015553346835076809
1744896848217507600,17.168507568359374,9.291330337524414,3.9385859966278076,0.11545369029045105
1744896848234320000,17.18531982421875,9.296713829040527,3.909274101257324,0.13938191533088684
1744896848251130000,17.202130126953126,9.326624870300293,3.8087754249572754,0.1866401731967926
1744896848267931000,17.218930908203124,9.365508079528809,3.7944185733795166,0.2913261651992798
1744896848284752100,17.235752197265626,9.390034675598145,3.7322051525115967,0.2961117923259735
1744896848301564400,17.252564453125,9.475577354431152,3.7471601963043213,0.28654050827026367
1744896848318374400,17.26937451171875,9.614361763000488,3.738187074661255,0.2955136001110077
1744896848335186400,17.2861865234375,9.667003631591797,3.723830223083496,0.357128769159317
1744896848351996400,17.302996337890626,9.600004196166992,3.7663028240203857,0.4342973232269287
1744896848368808700,17.31980859375,9.537193298339844,3.8470606803894043,0.4253242313861847
1744896848385620700,17.336620849609375,9.455238342285156,3.9044883251190186,0.3684946894645691
1744896848402430700,17.3534306640625,9.397810935974121,3.9284164905548096,0.3397808074951172
1744896848419253800,17.370253662109373,9.32602596282959,3.9038901329040527,0.33020952343940735
1744896848436063000,17.38706298828125,9.216554641723633,3.8937206268310547,0.30209386348724365
1744896848452867600,17.40386767578125,9.272786140441895,3.9278182983398438,0.23988047242164612
1744896848469675000,17.420675048828127,9.273384094238281,3.913461446762085,0.24945175647735596
1744896848486482400,17.437482421875,9.259027481079102,3.951746702194214,0.3116651475429535
1744896848503297300,17.45429736328125,9.269196510314941,3.927220106124878,0.38285163044929504
1744896848520107300,17.471107177734375,9.301499366760254,4.027718544006348,0.43130627274513245
1744896848536921600,17.487921630859375,9.324830055236816,4.0803608894348145,0.3978067636489868
1744896848553740300,17.504740234375,9.415159225463867,4.1383867263793945,0.3930211067199707
1744896848570560000,17.52156005859375,9.419346809387207,4.153341770172119,0.2787638306617737
1744896848587353600,17.538353515625,9.437891006469727,4.1868414878845215,0.2787638306617737
1744896848604169700,17.555169677734376,9.403793334960938,4.2346978187561035,0.2554338276386261
1744896848620988200,17.57198828125,9.446864128112793,4.240081787109375,0.27397820353507996
1744896848637770800,17.588770751953124,9.528220176696777,4.226323127746582,0.2069791555404663
1744896848654604000,17.60560400390625,9.600004196166992,4.202394962310791,0.18305093050003052
1744896848671422200,17.622422119140627,9.604789733886719,4.178466320037842,0.20159530639648438
1744896848688224000,17.63922412109375,9.561718940734863,4.168895244598389,0.15912270545959473
1744896848705000700,17.656000732421877,9.53779125213623,4.145565032958984,0.10648060590028763
1744896848721840000,17.672840087890624,9.528220176696777,4.116851329803467,0.08255238085985184
1744896848738652700,17.689652587890624,9.46181869506836,4.077968120574951,0.0729810893535614
1744896848755462700,17.706462646484376,9.385847091674805,4.063013076782227,0.13519448041915894
1744896848772274400,17.7232744140625,9.315258979797363,4.009772777557373,0.23988047242164612
1744896848789084700,17.740084716796876,9.330811500549316,3.9565322399139404,0.3403790295124054
1744896848805894100,17.75689404296875,9.33559799194336,3.9421753883361816,0.397208571434021
1744896848822706700,17.773706787109376,9.330811500549316,3.9702908992767334,0.4450650215148926
1744896848839519000,17.79051904296875,9.379266738891602,3.9846479892730713,0.5168496966362
1744896848856329000,17.807328857421876,9.451051712036133,3.93679141998291,0.544965386390686
1744896848873144800,17.824144775390625,9.513862609863281,3.8799619674682617,0.5635097622871399
1744896848889947400,17.840947509765623,9.585647583007812,3.875176191329956,0.592223584651947
1744896848906766600,17.8577666015625,9.643074989318848,3.8805601596832275,0.6113662123680115
1744896848923564000,17.87456396484375,9.742975234985352,3.895515203475952,0.5868397355079651
1744896848940397600,17.8913974609375,9.842875480651855,3.9152560234069824,0.5341976284980774
1744896848957195300,17.9081953125,9.933204650878906,3.9355950355529785,0.47198426723480225
1744896848974004700,17.925004638671876,10.085747718811035,3.927220106124878,0.4097708761692047
1744896848990820400,17.9418203125,10.137791633605957,3.9421753883361816,0.34277185797691345
1744896849007622100,17.9586220703125,10.113265037536621,3.985246181488037,0.2667997181415558
1744896849024442600,17.975442626953125,10.03131103515625,4.046861171722412,0.24287149310112
1744896849041240800,17.99224072265625,9.911669731140137,4.094119548797607,0.27696922421455383
1744896849058060000,18.00906005859375,9.744172096252441,4.131208419799805,0.27756741642951965
1744896849074888000,18.025887939453124,9.543174743652344,4.1347975730896,0.268594354391098
1744896849091698000,18.042697998046876,9.414560317993164,4.124628067016602,0.26440688967704773
1744896849108477200,18.059477294921876,9.4061861038208,4.048057556152344,0.2925225794315338
1744896849125325800,18.076325927734374,9.369096755981445,3.9565322399139404,0.37806597352027893
1744896849142115600,18.093115478515625,9.28893756866455,3.8985064029693604,0.4546363055706024
1744896849158930700,18.1099306640625,9.193224906921387,3.8739798069000244,0.44027936458587646
1744896849175758000,18.126758056640625,9.10827922821045,3.8111681938171387,0.46420758962631226
1744896849192547300,18.14354736328125,8.970691680908203,3.7387852668762207,0.5168496966362
1744896849209362700,18.16036279296875,8.813364028930664,3.76570463180542,0.6418746709823608
1744896849226172700,18.177172607421873,8.69791030883789,3.8697924613952637,0.6855437159538269
1744896849242985000,18.19398486328125,8.678169250488281,3.9559340476989746,0.747757077217102
1744896849259783700,18.21078369140625,8.745168685913086,3.9559340476989746,0.7668996453285217
1744896849276595500,18.227595458984375,8.903693199157715,3.9182469844818115,0.8141579031944275
1744896849293426400,18.244426513671876,9.075976371765137,3.8763725757598877,0.8279166221618652
1744896849310233900,18.26123388671875,9.248259544372559,3.8057844638824463,0.7268198728561401
1744896849327039200,18.278039306640625,9.510273933410645,3.7746777534484863,0.5874379873275757
1744896849343848400,18.294848388671873,9.715457916259766,3.799802303314209,0.6107679605484009
1744896849360664300,18.311664306640626,9.878767967224121,3.685544967651367,0.5808576941490173
1744896849377452000,18.3284521484375,10.076774597167969,3.5096726417541504,0.6801598072052002
1744896849394283800,18.34528369140625,10.292726516723633,3.352942705154419,0.6741777658462524
1744896849411112700,18.36211279296875,10.426724433898926,3.22552490234375,0.4773681163787842
1744896849427904000,18.378904052734374,10.353743553161621,3.2644083499908447,0.2721835672855377
1744896849444714200,18.39571435546875,10.146764755249023,3.3786656856536865,0.19202402234077454
1744896849461527800,18.41252783203125,9.873982429504395,3.4677982330322266,0.18364913761615753
1744896849478333200,18.429333251953125,9.678369522094727,3.4809587001800537,0.2225325107574463
1744896849495150300,18.446150390625,9.767501831054688,3.648456335067749,0.23270200192928314
1744896849511962400,18.46296240234375,9.960722923278809,3.7710886001586914,-0.06819544732570648
1744896849528772400,18.4797724609375,10.211370468139648,3.8362929821014404,-0.3936193287372589
1744896849545601300,18.496601318359374,10.350153923034668,3.7603209018707275,-0.45164528489112854
1744896849562408200,18.513408203125,10.319047927856445,3.573082447052002,-0.31824541091918945
1744896849579203800,18.530203857421874,10.313065528869629,3.380460262298584,-0.004187439568340778
1744896849596034800,18.547034912109375,10.335199356079102,3.159722328186035,0.12861421704292297
1744896849612842500,18.563842529296874,10.317253112792969,2.912065267562866,-0.039481572806835175
1744896849629648600,18.580648681640625,10.154541015625,2.8354947566986084,-0.2111666053533554
1744896849646468600,18.597468505859375,9.796216011047363,2.819343328475952,-0.3248256742954254
1744896849663288300,18.614288330078125,9.44746208190918,2.8797619342803955,-0.2667997181415558
1744896849680075500,18.631075439453124,9.157332420349121,2.843869686126709,-0.13698910176753998
1744896849696883200,18.64788330078125,8.9910306930542,2.761317253112793,-0.046061836183071136
1744896849713681700,18.664681640625,8.983254432678223,2.679363250732422,0.07776673883199692
1744896849730507000,18.681507080078124,9.055039405822754,2.6225335597991943,0.053240302950143814
1744896849747317500,18.6983173828125,9.22134017944336,2.6572296619415283,-0.01375873014330864
1744896849764127500,18.71512744140625,9.482755661010742,2.740380048751831,-0.1094716340303421
1744896849780956400,18.731956298828123,9.749555587768555,2.723630428314209,-0.2632105052471161
1744896849797764900,18.748764892578127,9.874580383300781,2.647658348083496,-0.2877369225025177
1744896849814558200,18.76555810546875,9.909276962280273,2.5848467350006104,-0.13998012244701385
1744896849831371800,18.782371826171875,9.934999465942383,2.493321180343628,0.04546362906694412
1744896849848184000,18.79918408203125,9.979267120361328,2.4113669395446777,0.18843477964401245
1744896849864994000,18.815994140625,10.032506942749023,2.3682961463928223,0.2548356056213379
1744896849881806000,18.83280615234375,10.099506378173828,2.3641088008880615,0.29312077164649963
1744896849898626600,18.84962646484375,10.228718757629395,2.392822742462158,0.3451646566390991
1744896849915445200,18.8664453125,10.347163200378418,2.4131617546081543,0.23030917346477509
1744896849932235000,18.883235107421875,10.398609161376953,2.490330219268799,0.18783657252788544
1744896849949050400,18.90005029296875,10.326824188232422,2.4993033409118652,0.2069791555404663
1744896849965860600,18.916860595703124,10.226923942565918,2.5082762241363525,0.24526432156562805
1744896849982672600,18.933672607421876,10.164710998535156,2.5603201389312744,0.3032902777194977
1744896849999496200,18.95049609375,10.193424224853516,2.555534601211548,0.28893333673477173
1744896850016294700,18.967294677734376,10.207781791687012,2.503490686416626,0.259621262550354
1744896850033105400,18.98410546875,10.237093925476074,2.4747767448425293,0.3170489966869354
1744896850049930800,19.0009306640625,10.141979217529297,2.4263222217559814,0.32183465361595154
1744896850066740700,19.01774072265625,10.075577735900879,2.3922245502471924,0.3122633695602417
1744896850083547400,19.03454736328125,10.100104331970215,2.3300111293792725,0.3164508044719696
1744896850100364300,19.0513642578125,10.139585494995117,2.201396942138672,0.35892340540885925
1744896850117179100,19.06817919921875,10.122238159179688,2.0859432220458984,0.4492524564266205
1744896850133981700,19.084981689453127,10.094121932983398,2.008774518966675,0.49651068449020386
1744896850150801200,19.10180126953125,10.042078018188477,1.9848463535308838,0.50129634141922
1744896850167590100,19.118590087890624,9.994221687316895,1.994417667388916,0.4492524564266205
1744896850184404500,19.135404541015625,9.993623733520508,1.9992033243179321,0.372682124376297
1744896850201213000,19.152212890625,9.936196327209473,2.018345832824707,0.363709032535553
1744896850218018300,19.169018310546875,9.873982429504395,2.017747640609741,0.3924229145050049
1744896850234834400,19.18583447265625,9.850054740905762,2.0416758060455322,0.3924229145050049
1744896850251652900,19.20265283203125,9.882955551147461,2.0751755237579346,0.38763725757598877
1744896850268477400,19.2194775390625,9.915857315063477,2.0997018814086914,0.35892340540885925
1744896850285267200,19.23626708984375,10.016355514526367,2.1194427013397217,0.3684946894645691
1744896850302080500,19.25308056640625,10.068997383117676,2.105085611343384,0.397208571434021
1744896850318882000,19.269882080078126,10.055238723754883,2.0853450298309326,0.4827519655227661
1744896850335702500,19.28670263671875,10.0073823928833,2.1230318546295166,0.5551348328590393
1744896850352518000,19.303517822265626,9.978668212890625,2.1708884239196777,0.5790630578994751
1744896850369326300,19.320326416015625,9.968499183654785,2.2091734409332275,0.5264210104942322
1744896850386138400,19.337138427734374,9.987043380737305,2.252244234085083,0.5030909776687622
1744896850402948600,19.353948486328125,9.92961597442627,2.2947168350219727,0.5078766345977783
1744896850419761400,19.370761474609374,9.857233047485352,2.342573404312134,0.5180460810661316
1744896850436572700,19.38757275390625,9.804591178894043,2.3946173191070557,0.5228317379951477
1744896850453380000,19.404380126953125,9.866206169128418,2.4472594261169434,0.5234299302101135
1744896850470193700,19.421193603515626,10.108479499816895,2.4783661365509033,0.3888336718082428
1744896850487004400,19.43800439453125,10.26640510559082,2.4364917278289795,0.32602208852767944
1744896850503811800,19.454811767578125,10.223334312438965,2.4646072387695312,0.40319061279296875
1744896850520642800,19.471642822265625,10.113265037536621,2.544168710708618,0.5324030518531799
1744896850537447200,19.488447265625,9.930811882019043,2.729612350463867,0.5958128571510315
1744896850554270500,19.5052705078125,9.872187614440918,2.8725836277008057,0.6442674994468689
1744896850571073500,19.522073486328125,9.865608215332031,3.253042459487915,1.033101201057434
1744896850587868700,19.53886865234375,9.705288887023926,2.909074068069458,0.745364248752594
1744896850604680000,19.555679931640626,9.66102123260498,3.0903303623199463,0.841675341129303
1744896850621507600,19.572507568359374,9.521040916442871,3.1148569583892822,0.5988038778305054
1744896850638333200,19.589333251953125,9.42054271697998,3.1519455909729004,0.6370890140533447
1744896850655113500,19.606113525390626,9.178269386291504,3.064607620239258,0.7238288521766663
1744896850671929300,19.622929443359375,8.904291152954102,2.913261651992798,1.0055837631225586
1744896850688737800,19.63973779296875,8.701499938964844,2.833700180053711,1.3926228284835815
1744896850705537000,19.656537109375,8.656634330749512,2.7690939903259277,1.8221344947814941
1744896850722360000,19.673360107421875,8.672187805175781,2.3132612705230713,1.1754741668701172
1744896850739170300,19.69017041015625,8.675776481628418,2.204986095428467,0.8117650747299194
1744896850755995000,19.706994873046874,8.779266357421875,2.1882362365722656,0.44386860728263855
1744896850772807700,19.7238076171875,8.94975471496582,2.2995026111602783,0.39122650027275085
1744896850789604400,19.740604248046875,9.053244590759277,1.846660852432251,0.20757736265659332
1744896850806409200,19.7574091796875,9.230911254882812,1.851446509361267,0.39840495586395264
1744896850823226400,19.774226318359375,9.464211463928223,2.142772674560547,0.7758727669715881
1744896850840050400,19.791050537109374,9.509077072143555,1.9423737525939941,0.7417750358581543
1744896850856848600,19.8078486328125,9.677172660827637,1.7665013074874878,0.6352944374084473
1744896850873654000,19.824654052734374,9.911669731140137,1.7629120349884033,0.7256234884262085
1744896850890470400,19.841470458984375,10.016355514526367,1.797009825706482,0.6921239495277405
1744896850907280600,19.85828076171875,9.92841911315918,1.9070796966552734,0.5778666734695435
1744896850924085800,19.875085693359374,9.7064847946167,2.0691933631896973,0.46002015471458435
1744896850940903000,19.89190283203125,9.491130828857422,2.1541385650634766,0.45583271980285645
1744896850957704000,19.908703857421877,9.204590797424316,2.214557409286499,0.5431707501411438
1744896850974521900,19.92552197265625,9.070592880249023,2.3228325843811035,0.6634100675582886
1744896850991340500,19.942340576171876,9.122636795043945,2.4466612339019775,0.8165507316589355
1744896851008162600,19.95916259765625,9.327820777893066,2.475973129272461,0.9116654396057129
1744896851024973000,19.97597314453125,9.448657989501953,2.3712873458862305,0.9445667266845703
1744896851041765600,19.992765625,9.487542152404785,2.3048863410949707,0.9439685344696045
1744896851058595600,20.009595703125,9.53061294555664,2.276172637939453,0.9056833982467651
1744896851075398400,20.0263984375,9.58205795288086,2.296511650085449,0.7860422134399414
1744896851092225000,20.04322509765625,9.667601585388184,2.321038007736206,0.7046862840652466
1744896851109011000,20.060010986328123,9.691530227661133,2.297708034515381,0.6616154313087463
1744896851125823000,20.076822998046875,9.65803050994873,2.259422779083252,0.6711867451667786
1744896851142619600,20.09361962890625,9.69212818145752,2.3018953800201416,0.7950153350830078
1744896851159448000,20.110447998046876,9.725627899169922,2.3395824432373047,0.9337990283966064
1744896851176258000,20.127258056640624,9.769296646118164,2.310868501663208,0.9954141974449158
1744896851193070000,20.144070068359376,9.806983947753906,2.311466693878174,0.9002995491027832
1744896851209867300,20.1608671875,9.849455833435059,2.3024935722351074,0.7950153350830078
1744896851226692400,20.1776923828125,9.834501266479492,2.3365912437438965,0.7136593461036682
1744896851243499500,20.19449951171875,9.786046028137207,2.379662036895752,0.656829833984375
1744896851260315000,20.21131494140625,9.695717811584473,2.369492530822754,0.656829833984375
1744896851277146600,20.228146728515625,9.591031074523926,2.3682961463928223,0.7292127013206482
1744896851293950500,20.244950439453124,9.491130828857422,2.3150558471679688,0.7956135272979736
1744896851310747600,20.26174755859375,9.453444480895996,2.3048863410949707,0.8195417523384094
1744896851327558700,20.27855859375,9.433703422546387,2.310270309448242,0.7339983582496643
1744896851344369000,20.295368896484376,9.433703422546387,2.3054845333099365,0.6909275650978088
1744896851361180700,20.3121806640625,9.357132911682129,2.2719850540161133,0.6622136831283569
1744896851377971700,20.3289716796875,9.30030345916748,2.237887382507324,0.7052844762802124
1744896851394803000,20.345802978515625,9.291330337524414,2.237887382507324,0.7244270443916321
1744896851411609900,20.36260986328125,9.372088432312012,2.2337000370025635,0.6478567123413086
1744896851428428500,20.379428466796874,9.491130828857422,2.249253273010254,0.5856433510780334
1744896851445235200,20.396235107421877,9.504889488220215,2.245065927505493,0.494716078042984
1744896851462047200,20.413047119140625,9.513264656066895,2.3503501415252686,0.4953143000602722
1744896851478844400,20.429844482421874,9.54197883605957,2.355135679244995,0.44745782017707825
1744896851495669500,20.44666943359375,9.541379928588867,2.379662036895752,0.39960137009620667
1744896851512497700,20.46349755859375,9.53659439086914,2.3748764991760254,0.380458801984787
1744896851529304000,20.480303955078124,9.517452239990234,2.379662036895752,0.3613162338733673
1744896851546099000,20.497098876953125,9.578469276428223,2.451446771621704,0.3756731450557709
1744896851562923800,20.513923828125,9.601201057434082,2.5046870708465576,0.26141586899757385
1744896851579725300,20.530725341796874,9.634700775146484,2.5148565769195557,0.1944168359041214
1744896851596550100,20.547550048828125,9.649057388305664,2.5429723262786865,0.26620152592658997
1744896851613359600,20.564359619140625,9.67238712310791,2.586043119430542,0.2949153780937195
1744896851630155300,20.5811552734375,9.616155624389648,2.4807589054107666,0.2997010350227356
1744896851646968000,20.597968017578125,9.65384292602539,2.538186550140381,0.34277185797691345
1744896851663764000,20.614763916015626,9.568299293518066,2.4711875915527344,0.26141586899757385
1744896851680593400,20.631593505859374,9.486943244934082,2.5088746547698975,0.2805584669113159
1744896851697402400,20.64840234375,9.396016120910645,2.536990165710449,0.3002992272377014
1744896851714212600,20.665212646484374,9.400801658630371,2.5322046279907227,0.30987054109573364
1744896851731041300,20.682041259765626,9.387042999267578,2.4747767448425293,0.3194418251514435
1744896851747831800,20.698831787109373,9.43489933013916,2.526820659637451,0.44327038526535034
1744896851764660200,20.71566015625,9.278767585754395,2.3778674602508545,0.3858426511287689
1744896851781453800,20.732453857421874,9.254241943359375,2.4400808811187744,0.4247260093688965
1744896851798282800,20.74928271484375,9.158528327941895,2.482553482055664,0.41515472531318665
1744896851815075600,20.76607568359375,9.153144836425781,2.507079839706421,0.3152543902397156
1744896851831890700,20.782890625,9.205188751220703,2.554936408996582,0.3008974492549896
1744896851848701200,20.799701171875,9.267401695251465,2.50289249420166,0.3002992272377014
1744896851865513000,20.816512939453126,9.411569595336914,2.4508485794067383,0.3236292600631714
1744896851882323200,20.8333232421875,9.55513858795166,2.4083759784698486,0.3038884699344635
1744896851899135500,20.850135498046875,9.654440879821777,2.4430718421936035,0.26560330390930176
1744896851915945500,20.866945556640626,9.725627899169922,2.4675984382629395,0.20817556977272034
1744896851932757200,20.88375732421875,9.768099784851074,2.520240545272827,0.18484555184841156
1744896851949567700,20.900567626953126,9.81535816192627,2.5495524406433105,0.15613168478012085
1744896851966379500,20.917379638671875,9.78664493560791,2.5878376960754395,0.15134602785110474
1744896851983189500,20.934189453125,9.714262008666992,2.6350958347320557,0.09451649338006973
1744896852000019500,20.95101953125,9.637093544006348,2.6973092555999756,0.08075776696205139
1744896852016825600,20.96782568359375,9.565308570861816,2.706282377243042,0.09990034252405167
1744896852033633300,20.98463330078125,9.580862045288086,2.648256540298462,0.1950150430202484
1744896852050452500,21.001452392578123,9.596415519714355,2.5525436401367188,0.251844584941864
1744896852067285200,21.01828515625,9.607182502746582,2.466402053833008,0.3188436031341553
1744896852084065500,21.0350654296875,9.559925079345703,2.4083759784698486,0.34695929288864136
1744896852100889000,21.05188916015625,9.512666702270508,2.3605196475982666,0.34217363595962524
1744896852117658600,21.06865869140625,9.507881164550781,2.3461625576019287,0.3326023519039154
1744896852134490000,21.085489990234375,9.474381446838379,2.3407788276672363,0.36610186100006104
1744896852151300400,21.10230029296875,9.436694145202637,2.3503501415252686,0.3900300860404968
1744896852168100600,21.1191005859375,9.407979965209961,2.368894338607788,0.42831525206565857
1744896852184922400,21.13592236328125,9.407382011413574,2.392822742462158,0.4049852192401886
1744896852201732900,21.15273291015625,9.42173957824707,2.3880369663238525,0.4097708761692047
1744896852218568700,21.169568603515625,9.445667266845703,2.383251428604126,0.4378865361213684
1744896852235370800,21.186370849609375,9.451051712036133,2.3647069931030273,0.4378865361213684
1744896852252181000,21.203180908203127,9.426525115966797,2.3880369663238525,0.42412781715393066
1744896852268999400,21.21999951171875,9.421140670776367,2.4221346378326416,0.3858426511287689
1744896852285803000,21.236802978515627,9.473184585571289,2.441875457763672,0.2997010350227356
1744896852302611200,21.253611083984374,9.540184020996094,2.4233310222625732,0.2470589429140091
1744896852319411700,21.27041162109375,9.525827407836914,2.3994028568267822,0.26141586899757385
1744896852336223200,21.28722314453125,9.515657424926758,2.465803623199463,0.26620152592658997
1744896852353033200,21.304033203125,9.495916366577148,2.4951157569885254,0.1902294009923935
1744896852369845200,21.32084521484375,9.53360366821289,2.5435705184936523,0.13280165195465088
1744896852386655700,21.33765576171875,9.562317848205566,2.5387847423553467,0.08973085135221481
1744896852403470800,21.354470947265625,9.57188892364502,2.548356056213379,0.10408778488636017
1744896852420274200,21.371274169921875,9.605388641357422,2.53399920463562,0.15194423496723175
1744896852437089800,21.38808984375,9.65803050994873,2.510669231414795,0.1704886108636856
1744896852453896400,21.404896484375,9.716055870056152,2.472383975982666,0.18484555184841156
1744896852470715000,21.42171484375,9.731011390686035,2.4197418689727783,0.2225325107574463
1744896852487539200,21.438539306640624,9.674181938171387,2.3712873458862305,0.24646073579788208
1744896852504333600,21.45533349609375,9.597611427307129,2.404188632965088,0.26081767678260803
1744896852521151500,21.4721513671875,9.554540634155273,2.38983154296875,0.20398813486099243
1744896852537955000,21.488955078125,9.549755096435547,2.376072883605957,0.18484555184841156
1744896852554782500,21.505782470703124,9.492925643920898,2.32761812210083,0.2225325107574463
1744896852571592200,21.52259228515625,9.388239860534668,2.321636199951172,0.2757728099822998
1744896852588404200,21.539404296875,9.302098274230957,2.3497519493103027,0.28534409403800964
1744896852605194500,21.556194580078124,9.249456405639648,2.3641088008880615,0.2476571500301361
1744896852622010400,21.57301025390625,9.263813018798828,2.3784656524658203,0.25244277715682983
1744896852638822400,21.589822509765625,9.34457015991211,2.383849620819092,0.251844584941864
1744896852655632400,21.60663232421875,9.46899700164795,2.365305185317993,0.26620152592658997
1744896852672444700,21.623444580078125,9.598209381103516,2.3324038982391357,0.28953152894973755
