time,seconds_elapsed,z,y,x
1744896831112420000,0.063420166015625,-0.506617546081543,0.26119256019592285,0.3719048798084259
1744896831154262300,0.10526220703125,-0.10973453521728516,0.00009179115295410156,0.2319476157426834
1744896831171071200,0.1220712890625,-0.025651931762695312,-0.060082435607910156,0.21488365530967712
1744896831187874600,0.13887451171875,0.06907176971435547,-0.07705652713775635,0.15103602409362793
1744896831204696000,0.155696044921875,0.03961944580078125,-0.08304727077484131,0.07644295692443848
1744896831221508400,0.17250830078125,-0.026597023010253906,-0.08182156085968018,0.17848265171051025
1744896831238305300,0.18930517578125,-0.1789379119873047,-0.04177379608154297,0.3813698887825012
1744896831255130400,0.20613037109375,-0.28641414642333984,0.0214005708694458,0.5495036840438843
1744896831271940400,0.2229404296875,-0.19116592407226562,0.10484278202056885,0.6113121509552002
1744896831288752400,0.23975244140625,0.0004253387451171875,0.13450312614440918,0.5050812363624573
1744896831305562400,0.256562255859375,0.3282003402709961,0.09035587310791016,0.4502274692058563
1744896831322378000,0.2733779296875,0.49661922454833984,0.0558093786239624,0.39822834730148315
1744896831339198500,0.290198486328125,0.47275543212890625,0.04267120361328125,0.37627020478248596
1744896831355993900,0.306993896484375,0.39188194274902344,0.026359200477600098,0.38033440709114075
1744896831372820700,0.32382080078125,0.3050041198730469,0.01568162441253662,0.36813968420028687
1744896831389632500,0.340632568359375,0.14993762969970703,-0.05055224895477295,0.32071781158447266
1744896831406442200,0.357442138671875,-0.017221450805664062,-0.04512143135070801,0.2900632321834564
1744896831423254500,0.374254638671875,-0.1562347412109375,0.009618759155273438,0.2155575454235077
1744896831440064800,0.391064697265625,-0.26354026794433594,0.06972241401672363,0.16899070143699646
1744896831456876500,0.40787646484375,-0.2994709014892578,0.1114187240600586,0.15209725499153137
1744896831473683000,0.424682861328125,-0.2652416229248047,0.15441155433654785,0.26855406165122986
1744896831490503200,0.441503173828125,-0.1731100082397461,0.17299890518188477,0.38909217715263367
1744896831507319000,0.458319091796875,-0.0830678939819336,0.1758509874343872,0.40581902861595154
1744896831524120800,0.475120849609375,-0.07039260864257812,0.19383013248443604,0.3520128130912781
1744896831540931300,0.491931396484375,0.049117088317871094,0.21313142776489258,0.3020530939102173
1744896831557726200,0.508726318359375,0.10097885131835938,0.16695725917816162,0.2950790226459503
1744896831574558200,0.52555810546875,0.0992746353149414,0.08580482006072998,0.368513822555542
1744896831591360500,0.542360595703125,0.1047525405883789,0.008810758590698242,0.42539480328559875
1744896831608166000,0.559165771484375,0.051959991455078125,-0.09305405616760254,0.48743486404418945
1744896831624987400,0.5759873046875,0.022995948791503906,-0.15694797039031982,0.542841911315918
1744896831641780500,0.592780517578125,-0.004612922668457031,-0.18702495098114014,0.5398979187011719
1744896831658594600,0.609594482421875,0.016965866088867188,-0.1893784999847412,0.4909244179725647
1744896831675405600,0.626405517578125,0.03901958465576172,-0.17032551765441895,0.4464125633239746
1744896831692217600,0.643217529296875,-0.010113716125488281,-0.1347799301147461,0.39191189408302307
1744896831709016000,0.66001611328125,-0.06280136108398438,-0.06667006015777588,0.34182050824165344
1744896831725840000,0.67683984375,-0.08823013305664062,-0.0008350610733032227,0.28451910614967346
1744896831742650000,0.693650146484375,-0.06873607635498047,0.0759803056716919,0.1588890552520752
1744896831759461600,0.710461669921875,-0.019750595092773438,0.13983476161956787,0.0901687741279602
1744896831776272000,0.72727197265625,-0.00348663330078125,0.21040785312652588,0.02926015853881836
1744896831793084200,0.744084228515625,0.0411834716796875,0.2548544406890869,0.025309771299362183
1744896831809894000,0.760893798828125,0.05862140655517578,0.2709636688232422,0.030055910348892212
1744896831826706400,0.77770654296875,0.11857795715332031,0.29530787467956543,0.021365612745285034
1744896831843529000,0.794529052734375,0.1771841049194336,0.29074954986572266,0.03387892246246338
1744896831860346000,0.81134619140625,0.19460296630859375,0.22982752323150635,0.08515024185180664
1744896831877147400,0.8281474609375,0.21169471740722656,0.03741574287414551,0.13773351907730103
1744896831893965800,0.8449658203125,0.18401622772216797,0.06967556476593018,0.29674074053764343
1744896831910777300,0.86177734375,0.1256580352783203,0.1288447380065918,0.3538550138473511
1744896831927586300,0.87858642578125,0.004596710205078125,0.09285569190979004,0.3413233160972595
1744896831944394000,0.89539404296875,-0.09508705139160156,0.1294558048248291,0.36708396673202515
1744896831961208000,0.9122080078125,-0.13956832885742188,0.09040307998657227,0.4443770945072174
1744896831977999400,0.928999267578125,-0.13132953643798828,0.02819693088531494,0.5215688943862915
1744896831994834200,0.945834228515625,-0.050278663635253906,0.07534360885620117,0.5871131420135498
1744896832011640300,0.962640380859375,-0.09886550903320312,0.01109302043914795,0.5401465892791748
1744896832028452600,0.97945263671875,-0.21297454833984375,0.09918081760406494,0.5382398366928101
1744896832045289200,0.996289306640625,-0.25000667572021484,0.11526095867156982,0.49053460359573364
1744896832062074600,1.01307470703125,-0.22174453735351562,0.08230936527252197,0.4799739718437195
1744896832078884900,1.029884765625,-0.17461299896240234,0.030109643936157227,0.3915135860443115
1744896832095694000,1.046694091796875,-0.19098472595214844,-0.03257453441619873,0.27589279413223267
1744896832112511500,1.063511474609375,-0.20471954345703125,0.011255502700805664,0.21931114792823792
1744896832129298200,1.080298095703125,-0.16056156158447266,0.01840054988861084,0.21192538738250732
1744896832146116400,1.097116455078125,-0.05166435241699219,-0.07055020332336426,0.2103874236345291
1744896832162927000,1.113927001953125,0.013854026794433594,-0.08079195022583008,0.17799273133277893
1744896832179734500,1.130734619140625,0.03665733337402344,-0.009704351425170898,0.20219767093658447
1744896832196551400,1.147551513671875,-0.02052593231201172,0.06366908550262451,0.15976044535636902
1744896832213359900,1.16435986328125,-0.06711673736572266,0.14743256568908691,0.14557605981826782
1744896832230167600,1.18116748046875,-0.05782604217529297,0.21877813339233398,0.10965818166732788
1744896832246984200,1.197984130859375,-0.07158184051513672,0.2170546054840088,0.07261276245117188
1744896832263781400,1.214781494140625,-0.08663272857666016,0.21595513820648193,0.099774569272995
1744896832280606700,1.231606689453125,-0.053284645080566406,0.20607149600982666,0.15869060158729553
1744896832297415700,1.248415771484375,-0.03365039825439453,0.1755967140197754,0.22338876128196716
1744896832314223600,1.2652236328125,0.0140228271484375,0.11195635795593262,0.28735315799713135
1744896832331039700,1.282039794921875,0.12706470489501953,-0.004923105239868164,0.3579302430152893
1744896832347848400,1.298848388671875,0.18178081512451172,-0.11402785778045654,0.4185832738876343
1744896832364673300,1.31567333984375,0.19149398803710938,-0.1944032907485962,0.38429954648017883
1744896832381470000,1.332469970703125,0.13555145263671875,-0.13342738151550293,0.37690094113349915
1744896832398278400,1.3492783203125,0.05513763427734375,-0.09364926815032959,0.42143648862838745
1744896832415101700,1.366101806640625,-0.045601844787597656,-0.06116616725921631,0.47487878799438477
1744896832431921700,1.382921630859375,-0.09919166564941406,-0.03638267517089844,0.47456884384155273
1744896832448724000,1.399723876953125,-0.08983707427978516,-0.010244011878967285,0.4533674716949463
1744896832465539600,1.41653955078125,-0.04175090789794922,-0.06507575511932373,0.3610975742340088
1744896832482364000,1.433364013671875,0.026862144470214844,-0.04580199718475342,0.30033421516418457
1744896832499162000,1.450162109375,0.04553699493408203,0.009020566940307617,0.2664855420589447
1744896832515968300,1.46696826171875,-0.015250205993652344,0.08619439601898193,0.26655396819114685
1744896832532788000,1.4837880859375,-0.06688690185546875,0.12222051620483398,0.2606751322746277
1744896832549586000,1.5005859375,-0.05540275573730469,0.15723562240600586,0.2240671068429947
1744896832566414300,1.517414306640625,-0.009831428527832031,0.13380157947540283,0.16160938143730164
1744896832583199700,1.53419970703125,0.009565353393554688,0.05458378791809082,0.12351758778095245
1744896832600010800,1.5510107421875,-0.00347900390625,0.04436087608337402,0.12265120446681976
1744896832616825300,1.567825439453125,0.0015392303466796875,0.11123013496398926,0.17761604487895966
1744896832633633800,1.5846337890625,-0.010025978088378906,0.1788017749786377,0.250449001789093
1744896832650450000,1.601449951171875,-0.033713340759277344,0.222495436668396,0.3585216999053955
1744896832667258600,1.618258544921875,-0.12485694885253906,0.20589745044708252,0.43824225664138794
1744896832684068900,1.63506884765625,-0.1829376220703125,0.1876450777053833,0.4789964556694031
1744896832700880600,1.651880615234375,-0.18825149536132812,0.18458938598632812,0.48570454120635986
1744896832717678000,1.668677978515625,-0.1300363540649414,0.04950273036956787,0.44271618127822876
1744896832734498300,1.685498291015625,-0.038311004638671875,0.042465806007385254,0.5677689909934998
1744896832751316200,1.702316162109375,-0.058127403259277344,0.02741825580596924,0.6083638668060303
1744896832768112000,1.719112060546875,-0.06650066375732422,0.0981215238571167,0.6754956841468811
1744896832784945200,1.735945068359375,-0.0019664764404296875,0.045542120933532715,0.6205986738204956
1744896832801747000,1.752746826171875,0.09588623046875,0.0022716522216796875,0.5257220268249512
1744896832818557400,1.769557373046875,0.1455078125,-0.03810989856719971,0.4496119022369385
1744896832835358000,1.78635791015625,0.19381332397460938,-0.07714700698852539,0.42595311999320984
1744896832852194300,1.8031943359375,0.16950130462646484,-0.1042783260345459,0.40022990107536316
1744896832869007400,1.82000732421875,0.07339286804199219,-0.050928354263305664,0.3241344690322876
1744896832885780700,1.83678076171875,-0.04736137390136719,0.025292158126831055,0.20455294847488403
1744896832902626800,1.853626708984375,-0.10876750946044922,0.0712883472442627,0.13714255392551422
1744896832919421000,1.8704208984375,-0.1369619369506836,0.05766594409942627,0.11115387082099915
1744896832936232700,1.887232666015625,-0.13933849334716797,0.03544485569000244,0.11746887862682343
1744896832953035300,1.90403515625,-0.1710357666015625,0.07322490215301514,0.13080380856990814
1744896832969871600,1.92087158203125,-0.12220287322998047,0.10596978664398193,0.08750550448894501
1744896832986681600,1.937681640625,-0.14612388610839844,0.11774194240570068,-0.008346788585186005
1744896833003489000,1.954489013671875,-0.18229007720947266,0.17207610607147217,-0.1316007375717163
1744896833020293000,1.971293212890625,-0.20462322235107422,0.18245697021484375,-0.26623255014419556
1744896833037115600,1.98811572265625,-0.08582019805908203,0.1556922197341919,-0.2831434905529022
1744896833053915000,2.004914794921875,0.0273590087890625,0.0698692798614502,-0.24132807552814484
1744896833070724900,2.021724853515625,0.1338348388671875,-0.08506667613983154,-0.16656790673732758
1744896833087547600,2.038547607421875,0.33514404296875,-0.3105665445327759,-0.12808580696582794
1744896833104343000,2.055343017578125,0.5248422622680664,-0.4463571310043335,-0.13682173192501068
1744896833121156000,2.072156005859375,0.510951042175293,-0.5935887694358826,-0.3762654662132263
1744896833137959700,2.088959716796875,0.3307046890258789,-0.7814921140670776,-0.5014432668685913
1744896833154763500,2.105763427734375,-0.0369873046875,-0.8453832864761353,-0.5090616345405579
1744896833171590100,2.122590087890625,-0.5809593200683594,-0.7579977512359619,-0.5492847561836243
1744896833188400600,2.139400634765625,-1.1705913543701172,-0.6817704439163208,-0.43726617097854614
1744896833205212200,2.156212158203125,-1.3534536361694336,-0.4652038812637329,-0.13665072619915009
1744896833222022400,2.1730224609375,-1.1866159439086914,-0.4521230459213257,-0.055630892515182495
1744896833238822000,2.18982177734375,-0.955169677734375,-0.5865786075592041,-0.14155974984169006
1744896833255644700,2.206644775390625,-0.6199607849121094,-0.6367447376251221,-0.08032545447349548
1744896833272456400,2.22345654296875,-0.6016950607299805,-0.5805550813674927,0.2652832269668579
1744896833289266700,2.2402666015625,-0.734593391418457,-0.4793137311935425,0.7069307565689087
1744896833306075400,2.257075439453125,-0.8868932723999023,-0.38053715229034424,0.8593242168426514
1744896833322892000,2.27389208984375,-1.026113510131836,-0.34016239643096924,0.9081091284751892
1744896833339717600,2.290717529296875,-1.071859359741211,-0.27170372009277344,0.9283912181854248
1744896833356524500,2.307524658203125,-0.9291172027587891,-0.2833906412124634,0.9238183498382568
1744896833373336600,2.324336669921875,-0.48307228088378906,-0.28591668605804443,1.017916202545166
1744896833390146800,2.341146728515625,0.18262481689453125,-0.2525217533111572,1.2226333618164062
1744896833406955000,2.357955078125,0.7414884567260742,-0.19775724411010742,1.3795559406280518
1744896833423768800,2.374768798828125,1.0384101867675781,0.003655374050140381,1.4436368942260742
1744896833440584700,2.391584716796875,1.390787124633789,0.3044939637184143,1.3176798820495605
1744896833457387000,2.408386962890625,2.043912887573242,0.5287005305290222,1.051593542098999
1744896833474206500,2.42520654296875,2.5924291610717773,0.5527641773223877,0.79917311668396
1744896833491013400,2.442013427734375,2.6451988220214844,0.5142374038696289,0.7801792621612549
1744896833507804400,2.458804443359375,2.2544097900390625,0.6982781291007996,0.9268026351928711
1744896833524639200,2.47563916015625,1.5177974700927734,0.9184460639953613,0.7621303796768188
1744896833541447200,2.492447265625,0.6419477462768555,1.0768824815750122,0.3972642719745636
1744896833558241300,2.5092412109375,0.19277667999267578,1.1370309591293335,0.003041982650756836
1744896833575069700,2.526069580078125,0.2970438003540039,0.9529659748077393,-0.4432520866394043
1744896833591862800,2.54286279296875,0.6376886367797852,0.5144548416137695,-0.7432042956352234
1744896833608678000,2.559677978515625,0.8715972900390625,-0.027995169162750244,-0.7746272087097168
1744896833625488000,2.57648779296875,0.7293853759765625,-0.47836607694625854,-0.6023665070533752
1744896833642299600,2.593299560546875,0.1627206802368164,-0.4583880603313446,-0.40583109855651855
1744896833659110000,2.61010986328125,-0.7704343795776367,-0.2866576313972473,-0.40916818380355835
1744896833675922000,2.626921875,-1.6629228591918945,-0.11250877380371094,-0.41491174697875977
1744896833692725200,2.643725341796875,-2.402433395385742,-0.003458738327026367,-0.4209241271018982
1744896833709544000,2.6605439453125,-2.8542933464050293,0.047188520431518555,-0.42311370372772217
1744896833726357200,2.677357177734375,-2.834242820739746,0.11216139793395996,-0.3364810347557068
1744896833743163100,2.6941630859375,-2.326467990875244,0.21591579914093018,-0.3394928574562073
1744896833759976200,2.71097607421875,-1.3309688568115234,0.3415079116821289,-0.38125425577163696
1744896833776791600,2.72779150390625,-0.10046672821044922,0.4035511016845703,-0.2858864665031433
1744896833793591800,2.744591796875,0.7904024124145508,0.3936046361923218,-0.15751028060913086
1744896833810413600,2.76141357421875,1.302647590637207,0.48051929473876953,0.018688201904296875
1744896833827220500,2.778220458984375,1.6677722930908203,0.5710617303848267,0.22589051723480225
1744896833844032800,2.79503271484375,2.1208066940307617,0.48795995116233826,0.6337071657180786
1744896833860859400,2.811859375,2.5040626525878906,0.1461368203163147,1.0053126811981201
1744896833877662200,2.828662109375,2.623472213745117,-0.2444106936454773,1.1097127199172974
1744896833894485200,2.8454853515625,2.2916765213012695,-0.5682700872421265,0.9644199013710022
1744896833911290600,2.86229052734375,1.5957860946655273,-0.6554471254348755,0.7930347919464111
1744896833928086300,2.879086181640625,0.731755256652832,-0.6296002864837646,0.5165895819664001
1744896833944910800,2.895910888671875,-0.12279415130615234,-0.47569283843040466,0.281977117061615
1744896833961725200,2.91272509765625,-0.8719577789306641,-0.31142276525497437,0.15479791164398193
1744896833978530800,2.92953076171875,-1.4212656021118164,-0.07507646083831787,0.21440714597702026
1744896833995349000,2.946348876953125,-1.7108769416809082,0.09776198863983154,0.3374502658843994
1744896834012144000,2.96314404296875,-1.5827360153198242,0.19139134883880615,0.5230900645256042
1744896834028966700,2.979966552734375,-1.039393424987793,0.23600590229034424,0.6998814344406128
1744896834045779500,2.996779541015625,-0.2620258331298828,0.2234945297241211,0.6833993196487427
1744896834062574000,3.013573974609375,0.5242633819580078,0.2083301544189453,0.5672325491905212
1744896834079382300,3.03038232421875,1.094146728515625,0.16561508178710938,0.46063852310180664
1744896834096199000,3.047198974609375,1.3276433944702148,0.08903992176055908,0.42456960678100586
1744896834113009700,3.064009765625,1.2627983093261719,0.05401778221130371,0.4087439775466919
1744896834129819000,3.08081884765625,0.9380598068237305,0.0597991943359375,0.2581630349159241
1744896834146631400,3.09763134765625,0.37672996520996094,0.06945455074310303,0.06249392032623291
1744896834163438000,3.11443798828125,-0.22086620330810547,0.08530843257904053,-0.030877649784088135
1744896834180257000,3.131257080078125,-0.670318603515625,0.04825317859649658,0.00232541561126709
1744896834197063700,3.148063720703125,-0.8927707672119141,-0.04510807991027832,0.06309139728546143
1744896834213876000,3.1648759765625,-0.9081344604492188,-0.15179026126861572,0.11130988597869873
1744896834230685400,3.181685546875,-0.8307609558105469,-0.2300255298614502,0.14146792888641357
1744896834247498000,3.198498046875,-0.7521810531616211,-0.2938532829284668,0.14701002836227417
1744896834264307700,3.2153076171875,-0.6869115829467773,-0.30199146270751953,0.15488070249557495
1744896834281126400,3.23212646484375,-0.6338624954223633,-0.25974881649017334,0.12890106439590454
1744896834297917200,3.248917236328125,-0.5873985290527344,-0.15228605270385742,0.17754483222961426
1744896834314738700,3.26573876953125,-0.5525312423706055,-0.04921376705169678,0.3109820783138275
1744896834331558700,3.28255859375,-0.4250926971435547,0.008282065391540527,0.5578182339668274
1744896834348348400,3.299348388671875,-0.23819923400878906,0.03346407413482666,0.7647243738174438
1744896834365173200,3.31617333984375,-0.018785476684570312,0.06482565402984619,0.8482545614242554
1744896834381993500,3.332993408203125,0.1887683868408203,0.12097740173339844,0.8519097566604614
1744896834398810000,3.34981005859375,0.4011526107788086,0.18210089206695557,0.7896376848220825
1744896834415618000,3.3666181640625,0.5864248275756836,0.18640971183776855,0.699928343296051
1744896834432436200,3.383436279296875,0.6939659118652344,0.14091181755065918,0.612494945526123
1744896834449244400,3.400244384765625,0.8298568725585938,0.08166944980621338,0.552856981754303
1744896834466054100,3.41705419921875,0.8697414398193359,-0.04464828968048096,0.5420660972595215
1744896834482851800,3.433851806640625,0.7559080123901367,-0.19146990776062012,0.584559977054596
1744896834499676400,3.450676513671875,0.4917478561401367,-0.30356502532958984,0.6215739250183105
1744896834516484400,3.467484375,0.11773681640625,-0.40296173095703125,0.5756189823150635
1744896834533299500,3.484299560546875,-0.26969432830810547,-0.50473952293396,0.5204267501831055
1744896834550114300,3.5011142578125,-0.5602855682373047,-0.5882327556610107,0.4589114785194397
1744896834566903600,3.517903564453125,-0.682037353515625,-0.6666703224182129,0.3671131730079651
1744896834583715800,3.5347158203125,-0.6172752380371094,-0.7472505569458008,0.23092998564243317
1744896834600532000,3.551531982421875,-0.43331336975097656,-0.8141632080078125,0.11946934461593628
1744896834617341000,3.5683408203125,-0.33530616760253906,-0.8731734752655029,0.12084120512008667
1744896834634147300,3.585147216796875,-0.3207416534423828,-0.8524490594863892,0.2502078115940094
1744896834650963200,3.601963134765625,-0.4059467315673828,-0.7551350593566895,0.377000629901886
1744896834667768300,3.618768310546875,-0.47968196868896484,-0.6256190538406372,0.4173341691493988
1744896834684584400,3.63558447265625,-0.4480161666870117,-0.5332996845245361,0.3769160211086273
1744896834701396000,3.65239599609375,-0.3275575637817383,-0.45644044876098633,0.32125985622406006
1744896834718194400,3.6691943359375,-0.21354007720947266,-0.4103989601135254,0.3226538300514221
1744896834735017200,3.686017333984375,-0.1147909164428711,-0.3763319253921509,0.4216596782207489
1744896834751829500,3.70282958984375,0.015372276306152344,-0.38320469856262207,0.538297176361084
1744896834768634600,3.719634521484375,0.17975711822509766,-0.4857386350631714,0.6109805107116699
1744896834785456400,3.736456298828125,0.3309202194213867,-0.5954968929290771,0.6947909593582153
1744896834802261500,3.753261474609375,0.3757925033569336,-0.6696308851242065,0.7622860670089722
1744896834819081500,3.77008154296875,0.3807849884033203,-0.694359302520752,0.7287222146987915
1744896834835883800,3.7868837890625,0.4320363998413086,-0.6923611164093018,0.6266193389892578
1744896834852695800,3.80369580078125,0.49079227447509766,-0.7196509838104248,0.49454304575920105
1744896834869523200,3.820523193359375,0.5774307250976562,-0.7757730484008789,0.3761984705924988
1744896834886331400,3.837331298828125,0.6515827178955078,-0.8428356647491455,0.3347442150115967
1744896834903141600,3.8541416015625,0.7028312683105469,-0.8936676979064941,0.4164310097694397
1744896834919937300,3.870937255859375,0.6524438858032227,-0.9215501546859741,0.5486829876899719
1744896834936764200,3.88776416015625,0.43650341033935547,-0.8910472393035889,0.6850364208221436
1744896834953573000,3.904572998046875,0.061092376708984375,-0.8197193145751953,0.7747033834457397
1744896834970389000,3.921388916015625,-0.39064693450927734,-0.7344087362289429,0.9108049273490906
1744896834987198000,3.938197998046875,-0.8356723785400391,-0.6725783348083496,1.0910577774047852
1744896835004003800,3.95500390625,-1.146916389465332,-0.6656219959259033,1.185552716255188
1744896835020818000,3.97181787109375,-1.213658332824707,-0.6429975032806396,1.2916818857192993
1744896835037607400,3.988607421875,-0.9087915420532227,-0.7537634372711182,1.3225898742675781
1744896835054420700,4.005420654296875,-0.3449211120605469,-0.9147824048995972,1.3196066617965698
1744896835071238400,4.02223828125,0.3217630386352539,-0.952729344367981,1.1761828660964966
1744896835088040000,4.0390400390625,0.7401752471923828,-0.884878396987915,0.9652116298675537
1744896835104860400,4.0558603515625,0.8317575454711914,-0.8128106594085693,0.6106815934181213
1744896835121672400,4.07267236328125,0.9077844619750977,-0.7387986183166504,0.3294394314289093
1744896835138469400,4.089469482421875,1.011444091796875,-0.7359530925750732,0.21872080862522125
1744896835155292000,4.1062919921875,1.059326171875,-0.8252077102661133,0.13631808757781982
1744896835172104700,4.123104736328125,0.9734725952148438,-0.7550234794616699,0.030214563012123108
1744896835188914400,4.13991455078125,0.7201757431030273,-0.5145149230957031,-0.23172853887081146
1744896835205726700,4.156726806640625,0.30056190490722656,-0.25690758228302,-0.4584118723869324
1744896835222539000,4.1735390625,-0.2030487060546875,0.009108901023864746,-0.6211051344871521
1744896835239337500,4.19033740234375,-0.6658525466918945,0.273256778717041,-0.8282957077026367
1744896835256161000,4.2071611328125,-0.8544101715087891,0.530859112739563,-1.0206979513168335
1744896835272971000,4.223970947265625,-0.7113809585571289,0.7340006828308105,-1.1799464225769043
1744896835289783000,4.240782958984375,-0.30692195892333984,0.9218488931655884,-1.3983664512634277
1744896835306593300,4.25759326171875,0.24137210845947266,1.1125526428222656,-1.631775140762329
1744896835323401500,4.2744013671875,0.8344621658325195,1.3409619331359863,-1.7818340063095093
1744896835340219000,4.291218994140625,1.2634086608886719,1.480431079864502,-1.7930225133895874
1744896835357030700,4.30803076171875,1.3837471008300781,1.5160080194473267,-1.6911773681640625
1744896835373847800,4.324847900390625,1.1407403945922852,1.4920437335968018,-1.503877878189087
1744896835390667000,4.3416669921875,0.5858020782470703,1.4670076370239258,-1.1816189289093018
1744896835407473400,4.358473388671875,-0.0001888275146484375,1.390667200088501,-0.8018051981925964
1744896835424285200,4.37528515625,-0.41052722930908203,1.219774603843689,-0.4501948952674866
1744896835441077200,4.3920771484375,-0.6223278045654297,0.9695969820022583,-0.191556915640831
1744896835457891300,4.408891357421875,-0.6977787017822266,0.7063707113265991,-0.015551306307315826
1744896835474693400,4.425693359375,-0.6171016693115234,0.497775673866272,0.15655741095542908
1744896835491529500,4.442529541015625,-0.4052886962890625,0.358315110206604,0.31695038080215454
1744896835508339700,4.459339599609375,-0.20795631408691406,0.3648684024810791,0.35936877131462097
1744896835525175800,4.47617578125,0.03243255615234375,0.49203693866729736,0.19231753051280975
1744896835541944600,4.492944580078125,0.17746925354003906,0.5550863742828369,-0.08109389245510101
1744896835558760200,4.50976025390625,0.2816438674926758,0.5526825189590454,-0.1341768056154251
1744896835575570000,4.52656982421875,0.3785877227783203,0.4299708604812622,-0.004573255777359009
1744896835592382000,4.5433818359375,0.46074962615966797,0.26751768589019775,0.16881060600280762
1744896835609192000,4.56019189453125,0.46572399139404297,0.11589932441711426,0.14755792915821075
1744896835626004200,4.577004150390625,0.39867115020751953,-0.0044879913330078125,0.022232532501220703
1744896835642831000,4.5938310546875,0.3763704299926758,-0.15488314628601074,0.021314352750778198
1744896835659622700,4.61062255859375,0.49314308166503906,-0.3578972816467285,0.13871681690216064
1744896835676436200,4.627436279296875,0.6951932907104492,-0.5761899948120117,0.16062963008880615
1744896835693248300,4.644248291015625,0.8884553909301758,-0.7144122123718262,0.16173911094665527
1744896835710061000,4.66106103515625,0.6775045394897461,-0.7827401161193848,0.009192824363708496
1744896835726867700,4.67786767578125,0.24049949645996094,-0.6900193691253662,-0.04665327072143555
1744896835743677400,4.694677490234375,-0.1316690444946289,-0.5515956878662109,0.1544346809387207
1744896835760519400,4.71151953125,-0.30794429779052734,-0.5504276752471924,0.3959255814552307
1744896835777292500,4.72829248046875,-0.31668949127197266,-0.6683077812194824,0.5708482265472412
1744896835794114800,4.74511474609375,-0.31595420837402344,-0.7125377655029297,0.5640139579772949
1744896835810927000,4.761927001953125,-0.44090843200683594,-0.6299669742584229,0.39999932050704956
1744896835827738000,4.778738037109375,-0.7488975524902344,-0.5585219860076904,0.27670353651046753
1744896835844546800,4.795546875,-1.1329030990600586,-0.5044293403625488,0.34973692893981934
1744896835861358800,4.81235888671875,-1.3556861877441406,-0.513181209564209,0.48570573329925537
1744896835878167000,4.8291669921875,-1.2033491134643555,-0.5575037002563477,0.5534716248512268
1744896835894998300,4.845998291015625,-0.7388219833374023,-0.6378912925720215,0.47478973865509033
1744896835911801000,4.862801025390625,-0.14761066436767578,-0.7056863307952881,0.3324298858642578
1744896835928620800,4.879620849609375,0.21741485595703125,-0.6943910121917725,0.2640400528907776
1744896835945427200,4.89642724609375,0.2855224609375,-0.5928590297698975,0.5107452869415283
1744896835962235000,4.91323486328125,0.18007850646972656,-0.5243866443634033,0.8420658707618713
1744896835979050800,4.93005078125,0.06769466400146484,-0.45792388916015625,1.0882846117019653
1744896835995863800,4.94686376953125,0.020590782165527344,-0.3518383502960205,1.1151031255722046
1744896836012671000,4.9636708984375,-0.049040794372558594,-0.22669219970703125,0.7436786890029907
1744896836029466000,4.980466064453125,0.3897132873535156,0.07752752304077148,0.5888596773147583
1744896836046279400,4.997279541015625,0.5506772994995117,0.17112278938293457,0.3002450466156006
1744896836063091700,5.014091796875,0.7660121917724609,0.1387331485748291,0.26099467277526855
1744896836079900200,5.030900146484375,0.8890571594238281,0.07400798797607422,0.4480322003364563
1744896836096715300,5.04771533203125,0.8284444808959961,0.04719996452331543,0.6176826357841492
1744896836113527300,5.06452734375,0.5876760482788086,0.10683798789978027,0.7233507633209229
1744896836130350000,5.08135009765625,0.3028755187988281,0.24617290496826172,0.759674072265625
1744896836147142700,5.098142578125,-0.014231681823730469,0.30478453636169434,0.756492555141449
1744896836163958300,5.114958251953125,-0.24490737915039062,0.2667815685272217,0.7190898060798645
1744896836180768000,5.13176806640625,-0.2851409912109375,0.1682288646697998,0.7259088158607483
1744896836197576700,5.14857666015625,-0.2583742141723633,0.06533503532409668,0.8254230618476868
1744896836214390000,5.16539013671875,-0.14939212799072266,-0.12005209922790527,0.943599283695221
1744896836231205600,5.18220556640625,0.021347999572753906,-0.2842113971710205,0.9749030470848083
1744896836248023000,5.19902294921875,0.24318408966064453,-0.42496252059936523,0.9619535803794861
1744896836264835000,5.2158349609375,0.350921630859375,-0.5307126045227051,0.8366827368736267
1744896836281634300,5.23263427734375,0.2810173034667969,-0.6133606433868408,0.6871858239173889
1744896836298446300,5.2494462890625,0.06907272338867188,-0.5984470844268799,0.5845900774002075
1744896836315253200,5.266253173828125,0.0067882537841796875,-0.5329625606536865,0.507462739944458
1744896836332071700,5.28307177734375,-0.13266563415527344,-0.5100610256195068,0.3165343403816223
1744896836348878600,5.299878662109375,-0.23403358459472656,-0.46980929374694824,0.19784694910049438
1744896836365683000,5.316682861328125,-0.3573417663574219,-0.4019443988800049,0.22275817394256592
1744896836382497800,5.333497802734375,-0.518280029296875,-0.3559749126434326,0.289215624332428
1744896836399326700,5.35032666015625,-0.601405143737793,-0.31230974197387695,0.29162824153900146
1744896836416154000,5.367154052734375,-0.49665069580078125,-0.25911688804626465,0.21872788667678833
1744896836432948000,5.383947998046875,-0.35144901275634766,-0.26288342475891113,0.023086965084075928
1744896836449758700,5.4007587890625,-0.2150554656982422,-0.27898383140563965,-0.12390649318695068
1744896836466572800,5.41757275390625,-0.11836051940917969,-0.29871082305908203,-0.1367064118385315
1744896836483366400,5.434366455078125,-0.024976730346679688,-0.28734445571899414,-0.10639238357543945
1744896836500192800,5.45119287109375,0.09111595153808594,-0.29118800163269043,-0.10125887393951416
1744896836516985600,5.467985595703125,0.2071685791015625,-0.2957451343536377,-0.09224945306777954
1744896836533798400,5.48479833984375,0.24190139770507812,-0.3083367347717285,-0.134496808052063
1744896836550614300,5.5016142578125,0.1755819320678711,-0.2927520275115967,-0.1456078290939331
1744896836567423200,5.51842333984375,-0.02953338623046875,-0.2243964672088623,-0.0750875473022461
1744896836584220400,5.535220458984375,-0.2554206848144531,-0.09253120422363281,0.01084434986114502
1744896836601045500,5.55204541015625,-0.4737548828125,0.055821895599365234,0.052973926067352295
1744896836617854700,5.568854736328125,-0.5782680511474609,0.12070775032043457,0.08759814500808716
1744896836634665700,5.585665771484375,-0.532374382019043,0.09965825080871582,0.12082654237747192
1744896836651477500,5.6024775390625,-0.40746402740478516,0.021856069564819336,0.1387643814086914
1744896836668289500,5.61928955078125,-0.24574661254882812,-0.06188845634460449,0.17957055568695068
1744896836685099500,5.636099609375,-0.12009906768798828,-0.12935686111450195,0.1904715895652771
1744896836701898500,5.6528984375,-0.016516685485839844,-0.19413352012634277,0.13698893785476685
1744896836718708700,5.669708740234375,0.05991172790527344,-0.2773367166519165,0.02378779649734497
1744896836735550500,5.686550537109375,0.08620452880859375,-0.3825032711029053,-0.08526498079299927
1744896836752359400,5.703359375,0.07226753234863281,-0.46733808517456055,-0.1680586338043213
1744896836769168000,5.72016796875,0.014555931091308594,-0.5274090766906738,-0.2519562840461731
1744896836785962200,5.736962158203125,-0.0030851364135742188,-0.5297539234161377,-0.3377861976623535
1744896836802777900,5.75377783203125,-0.052697181701660156,-0.5352813005447388,-0.41033029556274414
1744896836819582200,5.770582275390625,-0.0918893814086914,-0.5089607238769531,-0.4647514224052429
1744896836836399900,5.78739990234375,-0.11671924591064453,-0.5031505823135376,-0.48884719610214233
1744896836853210000,5.804210205078125,-0.11197662353515625,-0.504802942276001,-0.487112820148468
1744896836870022100,5.821022216796875,-0.1249246597290039,-0.5239222049713135,-0.5055086612701416
1744896836886852000,5.83785205078125,-0.09891796112060547,-0.49868035316467285,-0.4982186555862427
1744896836903630300,5.85463037109375,0.040535926818847656,-0.47177886962890625,-0.5063135623931885
1744896836920455400,5.871455322265625,0.2356100082397461,-0.45899128913879395,-0.5517348051071167
1744896836937282600,5.888282470703125,0.428314208984375,-0.4203075170516968,-0.5493760108947754
1744896836954083800,5.905083740234375,0.593144416809082,-0.478879451751709,-0.6717236042022705
1744896836970906400,5.92190625,0.7706928253173828,-0.3824796676635742,-0.6512442827224731
1744896836987695000,5.938695068359375,0.8961668014526367,-0.3202735185623169,-0.6557376384735107
1744896837004507600,5.955507568359375,1.0047378540039062,-0.24133765697479248,-0.6176602840423584
1744896837021320400,5.972320556640625,1.016021728515625,-0.14864671230316162,-0.5592217445373535
1744896837038135800,5.9891357421875,0.9336700439453125,-0.03675520420074463,-0.4469172954559326
1744896837054946000,6.005946044921875,0.8296966552734375,0.11647546291351318,-0.3471062183380127
1744896837071755300,6.02275537109375,0.7549734115600586,0.21245896816253662,-0.269351601600647
1744896837088563000,6.03956298828125,0.7354564666748047,0.24205172061920166,-0.20786261558532715
1744896837105396000,6.05639599609375,0.6630373001098633,0.22286415100097656,-0.12599432468414307
1744896837122184000,6.073183837890625,0.5523481369018555,0.22177839279174805,-0.07756924629211426
1744896837138982700,6.089982666015625,0.4831819534301758,0.2441786527633667,-0.09482860565185547
1744896837155796700,6.106796630859375,0.5114326477050781,0.2549738883972168,-0.04706728458404541
1744896837172621300,6.123621337890625,0.5577192306518555,0.1574612855911255,-0.08120250701904297
1744896837189431300,6.140431396484375,0.552647590637207,0.04483628273010254,-0.1313774585723877
1744896837206243300,6.157243408203125,0.46834468841552734,-0.04902291297912598,-0.14011573791503906
1744896837223053300,6.17405322265625,0.3929891586303711,-0.1304035186767578,-0.19571912288665771
1744896837239882200,6.19088232421875,0.32810306549072266,-0.2270040512084961,-0.1398559808731079
1744896837256673000,6.207673095703125,0.21190452575683594,-0.36509132385253906,-0.024145007133483887
1744896837273497300,6.224497314453125,0.13095474243164062,-0.551235556602478,0.1046600341796875
1744896837290298400,6.24129833984375,0.1520099639892578,-0.7448835372924805,0.16460931301116943
1744896837307109600,6.258109619140625,0.29888153076171875,-0.9362146854400635,0.21336346864700317
1744896837323919600,6.274919677734375,0.46941375732421875,-1.0658543109893799,0.22645199298858643
1744896837340731600,6.291731689453125,0.5160064697265625,-1.1770987510681152,0.1446472406387329
1744896837357542000,6.3085419921875,0.44970035552978516,-1.2233308553695679,0.0457158088684082
1744896837374354000,6.32535400390625,0.2119741439819336,-1.2358568906784058,0.01777172088623047
1744896837391181000,6.34218115234375,-0.16434764862060547,-1.162756323814392,0.016701459884643555
1744896837407973000,6.35897314453125,-0.6049013137817383,-0.9551892280578613,0.12440001964569092
1744896837424802300,6.37580224609375,-0.9068593978881836,-0.75872802734375,0.37607765197753906
1744896837441611800,6.39261181640625,-0.9761543273925781,-0.7150263786315918,0.5941280126571655
1744896837458415900,6.409415771484375,-0.8607387542724609,-0.709169864654541,0.7477825880050659
1744896837475238700,6.42623876953125,-0.7471103668212891,-0.7559866905212402,0.768470048904419
1744896837492027400,6.44302734375,-0.7016448974609375,-0.7618541717529297,0.8315552473068237
1744896837508842500,6.459842529296875,-0.6280670166015625,-0.7564196586608887,0.9979970455169678
1744896837525640400,6.476640380859375,-0.6063804626464844,-0.764150857925415,1.0759491920471191
1744896837542451700,6.49345166015625,-0.6244745254516602,-0.6460323333740234,1.0389065742492676
1744896837559274200,6.510274169921875,-0.7148046493530273,-0.42117905616760254,0.9959603548049927
1744896837576086500,6.52708642578125,-0.7528314590454102,-0.07517838478088379,0.9658117294311523
1744896837592904700,6.54390478515625,-0.6051158905029297,0.19362115859985352,0.7684231996536255
1744896837609722400,6.560722412109375,-0.12995147705078125,0.3591029644012451,0.31010037660598755
1744896837626515500,6.577515380859375,0.4417133331298828,0.4947047233581543,-0.2168804109096527
1744896837643310800,6.594310791015625,0.9131889343261719,0.45360255241394043,-0.5654407739639282
1744896837660140800,6.611140869140625,1.2834300994873047,0.6707687377929688,-0.7481080889701843
1744896837676952800,6.627952880859375,1.2802915573120117,0.6617181301116943,-0.8508939146995544
1744896837693748000,6.644748046875,1.00469970703125,0.7518467903137207,-0.7804964780807495
1744896837710577200,6.6615771484375,0.6436643600463867,0.9065067768096924,-0.6851620078086853
1744896837727402200,6.67840234375,0.3346290588378906,1.0418593883514404,-0.6518093943595886
1744896837744208600,6.695208740234375,0.0708017349243164,1.1287286281585693,-0.6555527448654175
1744896837761020700,6.712020751953125,-0.15489482879638672,1.2048475742340088,-0.729779064655304
1744896837777813000,6.72881298828125,-0.25006103515625,1.35866379737854,-0.8426856398582458
1744896837794629000,6.745629150390625,-0.3213834762573242,1.4973938465118408,-0.8597819209098816
1744896837811441700,6.762441650390625,-0.4342527389526367,1.535057544708252,-0.7014790773391724
1744896837828251600,6.779251708984375,-0.5258541107177734,1.5083043575286865,-0.4445449113845825
1744896837845063400,6.7960634765625,-0.5543928146362305,1.4377243518829346,-0.13677150011062622
1744896837861873400,6.812873291015625,-0.5365676879882812,1.2960667610168457,0.04562627524137497
1744896837878689000,6.82968896484375,-0.4100608825683594,1.2277235984802246,0.17884904146194458
1744896837895509500,6.846509521484375,-0.21572208404541016,1.1987276077270508,0.15595418214797974
1744896837912321800,6.86332177734375,0.2207355499267578,1.1709647178649902,0.014609239995479584
1744896837929132000,6.880132080078125,0.8566465377807617,0.8799688816070557,-0.02767181396484375
1744896837945943300,6.896943359375,1.3973274230957031,0.15607690811157227,0.10271817445755005
1744896837962752000,6.913751953125,1.5965919494628906,-0.6027748584747314,0.27630484104156494
1744896837979550700,6.93055078125,1.3028430938720703,-1.1564664840698242,0.5203362107276917
1744896837996362000,6.947362060546875,0.6440162658691406,-1.2159862518310547,0.8947497606277466
1744896838013174000,6.964174072265625,-0.1646137237548828,-1.1291518211364746,0.9947803616523743
1744896838029984000,6.98098388671875,-0.9064102172851562,-1.038109540939331,0.9901843070983887
1744896838046796300,6.99779638671875,-1.4747276306152344,-0.9584500789642334,0.8226521015167236
1744896838063603000,7.01460302734375,-1.6741671562194824,-0.8375325202941895,0.563873827457428
1744896838080434700,7.0314345703125,-1.4720840454101562,-0.7077510356903076,0.2593762278556824
1744896838097246500,7.04824658203125,-0.9268817901611328,-0.5745744705200195,0.010360270738601685
1744896838114037500,7.06503759765625,-0.18649864196777344,-0.5072405338287354,-0.10798025131225586
1744896838130850300,7.081850341796875,0.49730491638183594,-0.5563662052154541,-0.08125185966491699
1744896838147650000,7.098650146484375,1.0164718627929688,-0.635704517364502,0.12615054845809937
1744896838164470000,7.115469970703125,1.1949729919433594,-0.7556829452514648,0.242573544383049
1744896838181284000,7.1322841796875,1.0298919677734375,-0.808934211730957,0.28730344772338867
1744896838198085400,7.14908544921875,0.6094388961791992,-0.7251386642456055,0.24698083102703094
1744896838214923800,7.165923828125,0.03919410705566406,-0.6377456188201904,0.12816321849822998
1744896838231730700,7.182730712890625,-0.5315237045288086,-0.5368719100952148,-0.061127111315727234
1744896838248543200,7.199543212890625,-0.9277973175048828,-0.45206356048583984,-0.16096845269203186
1744896838265350400,7.216350341796875,-1.0904884338378906,-0.35991334915161133,-0.11776407063007355
1744896838282150400,7.233150390625,-1.0361747741699219,-0.21569108963012695,-0.09758660197257996
1744896838298961400,7.24996142578125,-0.7807674407958984,-0.07434463500976562,-0.13028958439826965
1744896838315770000,7.26677001953125,-0.38834571838378906,0.046904563903808594,-0.13740526139736176
1744896838332586800,7.283586669921875,-0.010669708251953125,0.1581859588623047,-0.13042622804641724
1744896838349395500,7.3003955078125,0.3750782012939453,0.24043035507202148,-0.096794493496418
1744896838366205400,7.317205322265625,0.7996234893798828,0.29282140731811523,-0.11233729869127274
1744896838383034400,7.334034423828125,1.0850067138671875,0.29424095153808594,-0.16969773173332214
1744896838399841500,7.350841552734375,0.9992809295654297,0.18200016021728516,-0.16107840836048126
1744896838416653300,7.3676533203125,0.5409612655639648,-0.016425132751464844,-0.07564739882946014
1744896838433464300,7.38446435546875,-0.14240169525146484,-0.22568750381469727,0.06271404027938843
1744896838450271700,7.401271728515625,-0.8544321060180664,-0.3931918144226074,0.14855578541755676
1744896838467059500,7.4180595703125,-1.393977165222168,-0.5314443111419678,0.26566386222839355
1744896838483871200,7.434871337890625,-1.5671987533569336,-0.5451552867889404,0.4372834265232086
1744896838500694000,7.451694091796875,-1.4317255020141602,-0.647557258605957,0.3386757969856262
1744896838517503700,7.468503662109375,-0.9342880249023438,-0.7551722526550293,0.18113192915916443
1744896838534318000,7.485318115234375,-0.4623289108276367,-0.8054764270782471,0.07798409461975098
1744896838551129000,7.502129150390625,-0.09285163879394531,-0.830782413482666,0.10467684268951416
1744896838567939800,7.51893994140625,0.15575599670410156,-0.8093245029449463,0.3309096693992615
1744896838584759800,7.535759765625,0.38736534118652344,-0.7240705490112305,0.5660532116889954
1744896838601571000,7.552571044921875,0.5660028457641602,-0.6469340324401855,0.6400399208068848
1744896838618372400,7.569372314453125,0.7287569046020508,-0.5295095443725586,0.5924165844917297
1744896838635179800,7.5861796875,0.8736734390258789,-0.3142542839050293,0.4933769404888153
1744896838651992600,7.60299267578125,0.9152278900146484,-0.0823519229888916,0.33756589889526367
1744896838668810200,7.619810302734375,0.7857627868652344,0.11339664459228516,0.18421736359596252
1744896838685618700,7.63661865234375,0.5047721862792969,0.24607563018798828,0.01712283492088318
1744896838702430200,7.65343017578125,0.1736135482788086,0.34161972999572754,-0.11368918418884277
1744896838719249200,7.670249267578125,-0.22080421447753906,0.3957056999206543,-0.17645785212516785
1744896838736069600,7.687069580078125,-0.5978927612304688,0.4008455276489258,-0.17062124609947205
1744896838752864300,7.7038642578125,-0.8939580917358398,0.3697237968444824,-0.15388187766075134
1744896838769696500,7.720696533203125,-0.9946470260620117,0.3243389129638672,-0.1458568572998047
1744896838786479900,7.73747998046875,-0.8922805786132812,0.27570247650146484,-0.09637117385864258
1744896838803286000,7.7542861328125,-0.6135702133178711,0.223677396774292,-0.0644252598285675
1744896838820105500,7.77110546875,-0.17276954650878906,0.1728229522705078,-0.09485965967178345
1744896838836915500,7.78791552734375,0.3314170837402344,0.06344389915466309,-0.209934800863266
1744896838853724400,7.804724365234375,0.7615509033203125,-0.019250154495239258,-0.28475823998451233
1744896838870527700,7.82152783203125,1.0462675094604492,-0.12255406379699707,-0.3432634472846985
1744896838887350800,7.838350830078125,1.1293678283691406,-0.19028687477111816,-0.27760758996009827
1744896838904173300,7.85517333984375,1.0427722930908203,-0.20386672019958496,-0.1988028585910797
1744896838920970000,7.871969970703125,0.8086233139038086,-0.17885208129882812,-0.15523642301559448
1744896838937764900,7.888764892578125,0.4987058639526367,-0.1529529094696045,-0.18731074035167694
1744896838954591200,7.90559130859375,0.1141366958618164,-0.1295151710510254,-0.31288206577301025
1744896838971404000,7.922404052734375,-0.20287322998046875,-0.05890846252441406,-0.43984800577163696
1744896838988216300,7.93921630859375,-0.47037601470947266,-0.010924100875854492,-0.5130862593650818
1744896839005024300,7.956024169921875,-0.7287540435791016,0.017891645431518555,-0.4070332944393158
1744896839021849000,7.97284912109375,-0.8941011428833008,0.04327106475830078,-0.20472534000873566
1744896839038648600,7.989648681640625,-0.8355140686035156,0.07792973518371582,-0.07562942057847977
1744896839055490800,8.00649072265625,-0.5545053482055664,0.09353494644165039,-0.08249912410974503
1744896839072279000,8.023279052734376,-0.181854248046875,0.12468099594116211,-0.06383806467056274
1744896839089096200,8.04009619140625,0.16076278686523438,0.21654796600341797,0.05428706109523773
1744896839105879800,8.0568798828125,0.4197263717651367,0.33867764472961426,0.15405401587486267
1744896839122702300,8.073702392578125,0.6063699722290039,0.3724508285522461,0.1391679346561432
1744896839139515000,8.090514892578126,0.7844123840332031,0.3679959774017334,0.20094972848892212
1744896839156327000,8.107326904296874,0.9543180465698242,0.21854162216186523,0.19470630586147308
1744896839173137000,8.124136962890624,1.0634708404541016,-0.006122112274169922,0.16532248258590698
1744896839189949000,8.140948974609374,1.1170873641967773,-0.14335227012634277,0.21749719977378845
1744896839206776300,8.1577763671875,1.029083251953125,-0.1882631778717041,0.16642022132873535
1744896839223564800,8.174564697265625,0.8264188766479492,-0.19212889671325684,0.1137896478176117
1744896839240400600,8.191400634765625,0.569697380065918,-0.153031587600708,0.07092167437076569
1744896839257196000,8.208196044921875,0.40738391876220703,-0.1576988697052002,0.027979090809822083
1744896839274013400,8.225013427734375,0.35025691986083984,-0.17296934127807617,0.013112679123878479
1744896839290816000,8.24181591796875,0.35636234283447266,-0.20753788948059082,-0.09487524628639221
1744896839307626000,8.2586259765625,0.37474918365478516,-0.1635887622833252,-0.21368290483951569
1744896839324437800,8.275437744140625,0.3010578155517578,-0.14661073684692383,-0.3206060230731964
1744896839341244400,8.292244384765626,0.1480731964111328,-0.12180829048156738,-0.4759262502193451
1744896839358050300,8.30905029296875,-0.003559112548828125,-0.13535594940185547,-0.6391106843948364
1744896839374870000,8.3258701171875,-0.07381916046142578,-0.13901066780090332,-0.7246577739715576
1744896839391699000,8.342698974609375,-0.07200813293457031,-0.1310877799987793,-0.75694739818573
1744896839408491800,8.35949169921875,-0.1276111602783203,-0.16231203079223633,-0.729191780090332
1744896839425305000,8.37630517578125,-0.14264869689941406,-0.24117755889892578,-0.6403495073318481
1744896839442111500,8.393111572265624,-0.24358272552490234,-0.31218671798706055,-0.539594292640686
1744896839458926300,8.40992626953125,-0.3706827163696289,-0.2969474792480469,-0.4645511507987976
1744896839475736600,8.426736572265625,-0.4701509475708008,-0.1539475917816162,-0.3664191961288452
1744896839492544000,8.4435439453125,-0.5246038436889648,-0.033712148666381836,-0.23067301511764526
1744896839509363200,8.46036328125,-0.49407291412353516,0.059951066970825195,-0.06523413956165314
1744896839526171000,8.4771708984375,-0.32763671875,0.08784270286560059,0.06057128310203552
1744896839542993700,8.49399365234375,-0.09966564178466797,0.07759809494018555,0.17605751752853394
1744896839559794700,8.510794677734374,0.11976432800292969,0.03396487236022949,0.289455771446228
1744896839576617200,8.5276171875,0.2277965545654297,0.04104161262512207,0.35719263553619385
1744896839593413600,8.54441357421875,0.2270193099975586,0.06650781631469727,0.4259723424911499
1744896839610223400,8.561223388671875,0.17565059661865234,0.052086591720581055,0.540746808052063
1744896839627037400,8.578037353515626,0.1819629669189453,-0.0028765201568603516,0.6016460657119751
1744896839643844000,8.594843994140625,0.23192501068115234,-0.04789233207702637,0.6485769748687744
1744896839660662800,8.611662841796875,0.22879505157470703,-0.0999448299407959,0.7566174268722534
1744896839677469400,8.628469482421876,0.15726470947265625,-0.11565256118774414,0.8872197866439819
1744896839694299000,8.645298828125,0.13323497772216797,-0.1311051845550537,0.9527562856674194
1744896839711106000,8.66210595703125,0.25838184356689453,-0.21683716773986816,0.9655898809432983
1744896839727901400,8.6789013671875,0.3824892044067383,-0.4015049934387207,0.862157940864563
1744896839744705800,8.695705810546874,0.3811635971069336,-0.5591576099395752,0.7364322543144226
1744896839761545000,8.712544921875,0.22481060028076172,-0.6285948753356934,0.6980124711990356
1744896839778329900,8.729329833984375,0.027299880981445312,-0.63297438621521,0.6540611982345581
1744896839795148300,8.746148193359375,-0.1311502456665039,-0.656003475189209,0.5285815000534058
1744896839811958300,8.762958251953124,-0.2218332290649414,-0.6673767566680908,0.2922680974006653
1744896839828773400,8.7797734375,-0.32472705841064453,-0.5709624290466309,-0.010049998760223389
1744896839845577700,8.79657763671875,-0.4336109161376953,-0.37766385078430176,-0.23576316237449646
1744896839862392600,8.813392578125,-0.5258474349975586,-0.21564555168151855,-0.3187980055809021
1744896839879206100,8.8302060546875,-0.4439725875854492,-0.14189767837524414,-0.2908238172531128
1744896839896029200,8.847029296875,-0.13420772552490234,-0.20456600189208984,-0.32670387625694275
1744896839912839000,8.8638388671875,0.20560836791992188,-0.3010289669036865,-0.481604665517807
1744896839929633500,8.880633544921874,0.4176015853881836,-0.38849425315856934,-0.6677040457725525
1744896839946446800,8.89744677734375,0.42345237731933594,-0.47319602966308594,-0.8294541835784912
1744896839963257000,8.914257080078125,0.2270030975341797,-0.562546968460083,-0.9142102003097534
1744896839980068400,8.931068359375,-0.1219797134399414,-0.6580595970153809,-1.02805495262146
1744896839996864500,8.947864501953125,-0.5819740295410156,-0.673506498336792,-1.1124516725540161
1744896840013688300,8.964688232421874,-0.9540109634399414,-0.6268215179443359,-1.021191120147705
1744896840030524000,8.98152392578125,-1.1751928329467773,-0.6225018501281738,-0.8407184481620789
1744896840047310600,8.998310546875,-1.0400619506835938,-0.66373610496521,-0.5869982242584229
1744896840064140800,9.015140869140625,-0.6859016418457031,-0.7262389659881592,-0.4803488552570343
1744896840080928300,9.03192822265625,-0.27480316162109375,-0.7498068809509277,-0.5453331470489502
1744896840097744600,9.04874462890625,-0.028345108032226562,-0.7374796867370605,-0.6793769598007202
1744896840114558000,9.065557861328125,0.1308145523071289,-0.74411940574646,-0.799156665802002
1744896840131370000,9.082369873046876,0.3925437927246094,-0.7991979122161865,-0.7731789946556091
1744896840148180200,9.09918017578125,0.6292142868041992,-0.9019663333892822,-0.72441565990448
1744896840164992300,9.1159921875,0.7307367324829102,-0.980169415473938,-0.738326907157898
1744896840181819100,9.132819091796875,0.6648130416870117,-0.9990410804748535,-0.7160573601722717
1744896840198611500,9.149611572265625,0.4040384292602539,-0.9590187072753906,-0.6777454018592834
1744896840215438600,9.1664384765625,0.10774040222167969,-0.8315788507461548,-0.5613419413566589
1744896840232250600,9.183250732421875,-0.026886940002441406,-0.7234644889831543,-0.45143404603004456
1744896840249044200,9.200044189453125,-0.02201366424560547,-0.7081156969070435,-0.33895283937454224
1744896840265868800,9.216868896484375,0.0831451416015625,-0.722123384475708,-0.24598264694213867
1744896840282659000,9.2336591796875,0.18055057525634766,-0.6794910430908203,-0.18473511934280396
1744896840299480800,9.250480712890624,0.3036937713623047,-0.5595515966415405,-0.18966583907604218
1744896840316291000,9.267291015625,0.5770730972290039,-0.35635900497436523,-0.15986168384552002
1744896840333103400,9.284103271484375,0.902379035949707,-0.13038873672485352,-0.09556294232606888
1744896840349913300,9.300913330078124,1.0985660552978516,0.014509916305541992,-0.15303200483322144
1744896840366725400,9.317725341796875,1.263340950012207,0.16987204551696777,-0.10002214461565018
1744896840383554600,9.334554443359375,1.187826156616211,0.20311570167541504,-0.08753085136413574
1744896840400359200,9.351359130859375,1.0498056411743164,0.13812899589538574,-0.041573405265808105
1744896840417157400,9.368157470703125,0.8306283950805664,0.0008575916290283203,0.01107596606016159
1744896840433967000,9.384967041015624,0.5229988098144531,-0.20218992233276367,-0.02065282315015793
1744896840450769700,9.401769775390624,0.3051118850708008,-0.3020918369293213,-0.11811275035142899
1744896840467596500,9.418596435546876,0.1304035186767578,-0.37131237983703613,-0.3545484244823456
1744896840484398300,9.4353984375,0.03181171417236328,-0.38152289390563965,-0.6774890422821045
1744896840501214000,9.4522138671875,0.10546684265136719,-0.38914990425109863,-0.916479229927063
1744896840518045000,9.469044921875,0.2008342742919922,-0.5110445022583008,-1.0512518882751465
1744896840534844400,9.485844482421875,0.2903099060058594,-0.6523087024688721,-1.0831660032272339
1744896840551660000,9.502659912109374,0.30601978302001953,-0.7439050674438477,-1.1063423156738281
1744896840568452000,9.5194521484375,0.16602134704589844,-0.7873036861419678,-1.1622307300567627
1744896840585253600,9.536253662109376,-0.017831802368164062,-0.7474297285079956,-1.220395565032959
1744896840602080500,9.55308056640625,-0.22200965881347656,-0.7238738536834717,-1.194466471672058
1744896840618890800,9.569890869140625,-0.3149547576904297,-0.6815128326416016,-1.15712308883667
1744896840635702500,9.58670263671875,-0.4075603485107422,-0.666496753692627,-1.092699408531189
1744896840652513800,9.603513671875,-0.4421091079711914,-0.6518576145172119,-1.0202925205230713
1744896840669328100,9.620328125,-0.4095945358276367,-0.6423990726470947,-0.9412949681282043
1744896840686135600,9.637135498046876,-0.4190635681152344,-0.6169624328613281,-0.7896180152893066
1744896840702961000,9.6539609375,-0.5684413909912109,-0.5699212551116943,-0.3791700005531311
1744896840719750400,9.67075048828125,-0.5982894897460938,-0.49744606018066406,0.16710183024406433
1744896840736567000,9.687567138671875,-0.4553842544555664,-0.5352644920349121,0.5353982448577881
1744896840753379000,9.704379150390626,-0.2088947296142578,-0.6782640218734741,0.6474719047546387
1744896840770203100,9.721203125,0.11806869506835938,-0.7676196098327637,0.7736721038818359
1744896840787002600,9.738002685546874,0.22723007202148438,-0.8959139585494995,1.046169400215149
1744896840803800600,9.754800537109375,-0.04629802703857422,-0.9148752689361572,1.543809413909912
1744896840820614400,9.771614501953126,-0.49999046325683594,-0.7565922737121582,1.8490493297576904
1744896840837436200,9.788436279296874,-0.8671550750732422,-0.3823063373565674,2.2406082153320312
1744896840854247000,9.805246826171874,-1.0032958984375,0.19697141647338867,2.171315908432007
1744896840871057400,9.822057373046874,-0.9306526184082031,0.6032834053039551,1.5792186260223389
1744896840887871200,9.838871337890625,-0.6404800415039062,0.9491727352142334,0.9915643930435181
1744896840904676400,9.85567626953125,-0.19848251342773438,1.1422901153564453,0.6871320605278015
1744896840921495800,9.872495849609376,0.21533870697021484,1.1566917896270752,0.7212293148040771
1744896840938303000,9.889302978515625,0.6116275787353516,1.0924808979034424,1.0498528480529785
1744896840955115000,9.906114990234375,1.0474119186401367,1.0352555513381958,1.3539270162582397
1744896840971923200,9.922923095703124,1.3958444595336914,0.888633131980896,1.5540602207183838
1744896840988732400,9.939732421875,1.5436687469482422,0.6949459314346313,1.6686357259750366
1744896841005567000,9.95656689453125,1.4818391799926758,0.5580419301986694,1.7374076843261719
1744896841022373400,9.973373291015625,1.2336225509643555,0.505185604095459,1.777322769165039
1744896841039183000,9.99018310546875,0.8687200546264648,0.5117630958557129,1.7729547023773193
1744896841055990500,10.006990478515625,0.5479164123535156,0.5741434097290039,1.666867971420288
1744896841072791000,10.023791015625,0.3113889694213867,0.6558529138565063,1.4778993129730225
1744896841089601800,10.040601806640625,0.18483638763427734,0.7355022430419922,1.1931852102279663
1744896841106413800,10.057413818359375,0.1304311752319336,0.8202723264694214,0.9300969839096069
1744896841123223800,10.074223876953125,0.13416194915771484,0.836538553237915,0.667778730392456
1744896841140036000,10.0910361328125,0.15947246551513672,0.8217110633850098,0.44916588068008423
1744896841156846000,10.10784619140625,0.3208742141723633,0.7912037372589111,0.3066370487213135
1744896841173674200,10.12467431640625,0.6278419494628906,0.7082381248474121,0.15149492025375366
1744896841190486300,10.141486328125,0.8978843688964844,0.5348396301269531,0.0085335373878479
1744896841207294000,10.1582939453125,0.958226203918457,0.38322901725769043,-0.07978856563568115
1744896841224087800,10.175087890625,0.8534231185913086,0.2951347827911377,-0.13571345806121826
1744896841240912100,10.191912109375,0.6855926513671875,0.25640273094177246,-0.15260553359985352
1744896841257706800,10.208706787109374,0.443328857421875,0.18627262115478516,-0.18593275547027588
1744896841274516500,10.2255166015625,0.16218185424804688,0.2027742862701416,-0.19007062911987305
1744896841291338200,10.242338134765625,-0.11273860931396484,0.15801095962524414,-0.22278225421905518
1744896841308147200,10.259147216796874,-0.21188926696777344,0.04314565658569336,-0.2378590703010559
1744896841324955600,10.27595556640625,-0.048003196716308594,-0.2230541706085205,-0.2413577437400818
1744896841341769000,10.29276904296875,0.17815780639648438,-0.5432448387145996,-0.16485345363616943
1744896841358575400,10.309575439453125,0.19190406799316406,-0.7287137508392334,0.036780714988708496
1744896841375391500,10.3263916015625,-0.04946613311767578,-0.7631978988647461,0.2761106491088867
1744896841392202200,10.3432021484375,-0.37674427032470703,-0.6870150566101074,0.5384951829910278
1744896841409014000,10.360013916015625,-0.7093477249145508,-0.6601247787475586,0.6749216318130493
1744896841425823700,10.37682373046875,-0.998866081237793,-0.6223869323730469,0.7135016918182373
1744896841442635800,10.3936357421875,-1.1205573081970215,-0.5341291427612305,0.6641632318496704
1744896841459446000,10.410446044921875,-1.167107105255127,-0.4755592346191406,0.49782323837280273
1744896841476258000,10.427258056640625,-1.104832649230957,-0.3726024627685547,0.3029738664627075
1744896841493085000,10.4440849609375,-0.9283895492553711,-0.31784486770629883,0.07087767124176025
1744896841509894400,10.460894287109374,-0.7145929336547852,-0.3369131088256836,-0.08109158277511597
1744896841526703900,10.477703857421876,-0.5358371734619141,-0.41992902755737305,-0.07923716306686401
1744896841543512800,10.494512939453125,-0.3768272399902344,-0.5069913864135742,0.06640589237213135
1744896841560318000,10.51131787109375,-0.18799209594726562,-0.5287728309631348,0.27043598890304565
1744896841577124600,10.52812451171875,0.034313201904296875,-0.535123348236084,0.3256346583366394
1744896841593935000,10.54493505859375,0.21044349670410156,-0.5397055149078369,0.3311554193496704
1744896841610747000,10.561746826171875,0.2532968521118164,-0.5146243572235107,0.35945945978164673
1744896841627557000,10.57855712890625,0.17652034759521484,-0.44379281997680664,0.37847602367401123
1744896841644369200,10.595369140625,0.048755645751953125,-0.36614060401916504,0.3158401846885681
1744896841661177600,10.612177490234375,-0.04211997985839844,-0.25899410247802734,0.1991328001022339
1744896841677988600,10.628988525390625,-0.053680419921875,-0.17774152755737305,0.09619140625
1744896841694815500,10.6458154296875,-0.0043315887451171875,-0.13495635986328125,0.024476826190948486
1744896841711627300,10.662627197265625,0.047664642333984375,-0.11058354377746582,-0.026779115200042725
1744896841728437500,10.6794375,0.05260753631591797,-0.09139347076416016,-0.09968966245651245
1744896841745249800,10.696249755859375,0.013256072998046875,-0.06404685974121094,-0.19320189952850342
1744896841762055700,10.7130556640625,-0.028963088989257812,-0.07850503921508789,-0.27837324142456055
1744896841778841600,10.729841552734374,-0.09082794189453125,-0.13471221923828125,-0.33395618200302124
1744896841795667700,10.746667724609376,-0.10791969299316406,-0.21725845336914062,-0.356486439704895
1744896841812480800,10.763480712890624,-0.061127662658691406,-0.29012584686279297,-0.37553346157073975
1744896841829290200,10.780290283203126,0.055774688720703125,-0.35028934478759766,-0.40898188948631287
1744896841846099200,10.79709912109375,0.1794281005859375,-0.392270565032959,-0.43939152359962463
1744896841862915800,10.813915771484375,0.23170948028564453,-0.3955991268157959,-0.44925329089164734
1744896841879724500,10.830724609375,0.2024545669555664,-0.32471561431884766,-0.4330688714981079
1744896841896531500,10.847531494140625,0.1417083740234375,-0.22926616668701172,-0.43771588802337646
1744896841913350100,10.86435009765625,0.11913776397705078,-0.11429834365844727,-0.44485703110694885
1744896841930156800,10.88115673828125,0.09572029113769531,-0.027577877044677734,-0.46183887124061584
1744896841946969000,10.897968994140625,0.0850992202758789,0.08248281478881836,-0.4905850291252136
1744896841963776000,10.91477587890625,0.055228233337402344,0.20506572723388672,-0.5328047275543213
1744896841980607200,10.931607177734374,0.03455543518066406,0.28895998001098633,-0.5749795436859131
1744896841997415700,10.948415771484376,0.006626129150390625,0.305753231048584,-0.5881975293159485
1744896842014231000,10.96523095703125,-0.011350631713867188,0.2577676773071289,-0.5541240572929382
1744896842031037200,10.982037109375,-0.09501934051513672,0.1896195411682129,-0.507104754447937
1744896842047819500,10.998819580078125,-0.22658061981201172,0.11399173736572266,-0.43423643708229065
1744896842064646000,11.01564599609375,-0.35006237030029297,0.013742923736572266,-0.334480345249176
1744896842081461200,11.032461181640626,-0.4429798126220703,-0.11608648300170898,-0.23708784580230713
1744896842098264800,11.049264892578124,-0.4562397003173828,-0.2593216896057129,-0.14503735303878784
1744896842115080200,11.066080078125,-0.3838663101196289,-0.36174631118774414,-0.07073917984962463
1744896842131890200,11.08289013671875,-0.25866031646728516,-0.4098348617553711,-0.01346278190612793
1744896842148719900,11.099719970703125,-0.11255741119384766,-0.40404343605041504,0.06340938806533813
1744896842165526800,11.11652685546875,0.05872344970703125,-0.3611006736755371,0.1304025650024414
1744896842182334700,11.133334716796876,0.26929187774658203,-0.2943401336669922,0.14187633991241455
1744896842199152400,11.15015234375,0.4365091323852539,-0.19866228103637695,0.10295629501342773
1744896842215960600,11.166960693359375,0.504542350769043,-0.09042978286743164,0.06347686052322388
1744896842232770300,11.183770263671875,0.48402881622314453,0.00909280776977539,0.018838465213775635
1744896842249582800,11.200582763671875,0.394744873046875,0.06909370422363281,-0.03963187336921692
1744896842266392800,11.217392822265625,0.2674417495727539,0.09885072708129883,-0.06805023550987244
1744896842283185000,11.234184814453124,0.1432504653930664,0.115936279296875,-0.1008608341217041
1744896842300004600,11.251004638671875,0.07436466217041016,0.14246320724487305,-0.12796640396118164
1744896842316811300,11.267811279296875,0.06213951110839844,0.10288524627685547,-0.15901172161102295
1744896842333623000,11.284623046875,0.07538604736328125,0.008831501007080078,-0.1578669548034668
1744896842350439000,11.30143896484375,0.0998830795288086,-0.10291051864624023,-0.12872859835624695
1744896842367246300,11.318246337890624,0.1314258575439453,-0.19124126434326172,-0.11650148034095764
1744896842384057900,11.335057861328124,0.1578845977783203,-0.24785566329956055,-0.13149124383926392
1744896842400867800,11.351867919921874,0.12189865112304688,-0.24439620971679688,-0.12145179510116577
1744896842417685200,11.368685302734375,0.04753398895263672,-0.2171931266784668,-0.08195838332176208
1744896842434492400,11.385492431640625,-0.0009765625,-0.16597366333007812,-0.05889391899108887
1744896842451289000,11.4022890625,0.011829376220703125,-0.1387166976928711,-0.05766195058822632
1744896842468113200,11.419113037109375,0.061074256896972656,-0.117156982421875,-0.10308557748794556
1744896842484940500,11.4359404296875,0.126800537109375,-0.0995798110961914,-0.13612589240074158
1744896842501731300,11.4527314453125,0.19670677185058594,-0.10993719100952148,-0.12040632963180542
1744896842518556700,11.469556640625,0.26148033142089844,-0.17107868194580078,-0.10867094993591309
1744896842535371500,11.48637158203125,0.2444610595703125,-0.25114011764526367,-0.10642385482788086
1744896842552169000,11.5031689453125,0.19962024688720703,-0.2921271324157715,-0.12536552548408508
1744896842568979000,11.51997900390625,0.13401126861572266,-0.28508806228637695,-0.16253063082695007
1744896842585791000,11.536791015625,0.04588127136230469,-0.27668190002441406,-0.1996355950832367
1744896842602601000,11.55360107421875,-0.01685333251953125,-0.2241802215576172,-0.24299684166908264
1744896842619413500,11.57041357421875,-0.0650339126586914,-0.14271211624145508,-0.2997063994407654
1744896842636226800,11.587226806640626,-0.05139446258544922,-0.0704655647277832,-0.31467893719673157
1744896842653052000,11.604052001953125,0.014295578002929688,-0.018710613250732422,-0.3108040392398834
1744896842669856500,11.6208564453125,0.16648101806640625,0.03180646896362305,-0.33731549978256226
1744896842686657500,11.637657470703125,0.3647432327270508,0.07552719116210938,-0.3398689031600952
1744896842703477500,11.6544775390625,0.5076828002929688,0.08368110656738281,-0.3423527181148529
1744896842720294400,11.67129443359375,0.5605249404907227,0.0763254165649414,-0.30331504344940186
1744896842737104100,11.688104248046875,0.46445178985595703,0.06559228897094727,-0.2526549696922302
1744896842753886700,11.70488671875,0.27320384979248047,0.11042451858520508,-0.22828584909439087
1744896842770715400,11.72171533203125,0.02628326416015625,0.1613779067993164,-0.1826956868171692
1744896842787511600,11.738511474609375,-0.1666555404663086,0.22696924209594727,-0.15901947021484375
1744896842804334300,11.755334228515625,-0.2104625701904297,0.28973913192749023,-0.14413446187973022
1744896842821146600,11.772146728515626,-0.16040515899658203,0.32915353775024414,-0.222248375415802
1744896842837949400,11.788949462890624,-0.07155609130859375,0.37241268157958984,-0.3680436313152313
1744896842854765800,11.805765869140625,0.0322265625,0.3610086441040039,-0.4634302258491516
1744896842871582000,11.82258203125,-0.052028656005859375,0.3723874092102051,-0.4071192145347595
1744896842888391200,11.83939111328125,-0.15949344635009766,0.3336915969848633,-0.19941049814224243
1744896842905201200,11.856201171875,0.024679183959960938,0.23321819305419922,-0.07364088296890259
1744896842922013200,11.87301318359375,0.2329692840576172,0.06532478332519531,-0.03015059232711792
1744896842938823200,11.8898232421875,0.4489774703979492,-0.02808237075805664,0.0657733678817749
1744896842955651800,11.90665185546875,0.6680946350097656,-0.09830307960510254,0.11717063188552856
1744896842972462600,11.923462646484374,0.7501354217529297,-0.17826557159423828,0.08611571788787842
1744896842989252600,11.940252685546875,0.6950483322143555,-0.32460904121398926,0.041663527488708496
1744896843006081300,11.957081298828125,0.5320444107055664,-0.43589019775390625,0.050853848457336426
1744896843022883800,11.9738837890625,0.2672386169433594,-0.47232961654663086,0.07907205820083618
1744896843039679700,11.9906796875,-0.13503742218017578,-0.447542667388916,0.013765275478363037
1744896843056502300,12.007502197265625,-0.5757589340209961,-0.3992319107055664,0.0044577717781066895
1744896843073307400,12.024307373046875,-0.8763141632080078,-0.386202335357666,0.18332678079605103
1744896843090129000,12.04112890625,-0.9832448959350586,-0.43230295181274414,0.34242361783981323
1744896843106934300,12.057934326171875,-0.9245905876159668,-0.43414735794067383,0.36658400297164917
1744896843123730400,12.07473046875,-0.790252685546875,-0.41036081314086914,0.29612213373184204
1744896843140576500,12.091576416015625,-0.6774368286132812,-0.39678406715393066,0.2348901629447937
1744896843157362200,12.108362060546876,-0.5944623947143555,-0.39330458641052246,0.1844320297241211
1744896843174194700,12.125194580078125,-0.46030235290527344,-0.4211397171020508,0.16878950595855713
1744896843191006500,12.14200634765625,-0.3015584945678711,-0.44910097122192383,0.1772531270980835
1744896843207806700,12.158806640625,-0.13419342041015625,-0.4377176761627197,0.1611870527267456
1744896843224633900,12.1756337890625,-0.04262733459472656,-0.3859691619873047,0.10674154758453369
1744896843241437700,12.192437744140625,0.03237342834472656,-0.34234118461608887,0.04818016290664673
1744896843258262000,12.209261962890626,0.12237548828125,-0.2950453758239746,-0.02488696575164795
1744896843275059000,12.226058837890625,0.13300800323486328,-0.2547461986541748,-0.07778805494308472
1744896843291854300,12.242854248046875,0.0859823226928711,-0.14296817779541016,-0.07474613189697266
1744896843308668000,12.25966796875,-0.0015878677368164062,0.00009560585021972656,-0.09998118877410889
1744896843325479700,12.276479736328126,-0.11954879760742188,0.1091468334197998,-0.1284136176109314
1744896843342289700,12.29328955078125,-0.2620067596435547,0.15074396133422852,-0.15305298566818237
1744896843359089700,12.310089599609375,-0.2774934768676758,0.17853713035583496,-0.12499338388442993
1744896843375912000,12.326911865234376,-0.1692371368408203,0.18250751495361328,-0.08036893606185913
1744896843392724200,12.34372412109375,0.023859024047851562,0.1657712459564209,-0.04622995853424072
1744896843409534500,12.360534423828126,0.24062252044677734,0.14885902404785156,-0.001327216625213623
1744896843426346500,12.377346435546874,0.394287109375,0.1220548152923584,-0.01455765962600708
1744896843443173400,12.39417333984375,0.4747800827026367,0.07401871681213379,-0.04397064447402954
1744896843459966200,12.41096630859375,0.40802574157714844,-0.0018510818481445312,-0.02529686689376831
1744896843476792800,12.427792724609375,0.2441082000732422,-0.06820058822631836,0.02243804931640625
1744896843493604400,12.444604248046875,0.07612991333007812,-0.09943675994873047,0.08851045370101929
1744896843510415000,12.4614150390625,-0.06849002838134766,-0.12325048446655273,0.14071059226989746
1744896843527210000,12.4782099609375,-0.1223440170288086,-0.15292000770568848,0.16617602109909058
1744896843544022500,12.4950224609375,-0.11336421966552734,-0.1696920394897461,0.15343648195266724
1744896843560835600,12.511835693359375,-0.07670307159423828,-0.14708328247070312,0.12672650814056396
1744896843577631500,12.528631591796875,-0.05950164794921875,-0.12549114227294922,0.1055595874786377
1744896843594457600,12.54545751953125,-0.07847976684570312,-0.10080981254577637,0.1445552110671997
1744896843611267600,12.562267578125,-0.06972885131835938,-0.048065900802612305,0.17713820934295654
1744896843628082400,12.57908251953125,-0.015802383422851562,-0.006624460220336914,0.12788021564483643
1744896843644903200,12.595903076171876,0.08583450317382812,0.03577899932861328,0.037175774574279785
1744896843661701400,12.612701416015625,0.20257568359375,0.06820440292358398,-0.052710115909576416
1744896843678509000,12.629509033203124,0.3177614212036133,0.09206724166870117,-0.14852535724639893
1744896843695340800,12.6463408203125,0.3871116638183594,0.10415053367614746,-0.20850569009780884
1744896843712145000,12.663144775390625,0.40275096893310547,0.10216021537780762,-0.19936424493789673
1744896843728943400,12.679943359375,0.37047290802001953,0.08757162094116211,-0.1469954252243042
1744896843745770500,12.6967705078125,0.25125980377197266,0.08503150939941406,-0.12176138162612915
1744896843762582300,12.713582275390625,0.144775390625,0.11893033981323242,-0.1295374035835266
1744896843779376400,12.73037646484375,0.06175041198730469,0.14121174812316895,-0.1263737678527832
1744896843796187100,12.747187255859375,0.046604156494140625,0.14876770973205566,-0.13075071573257446
1744896843813001000,12.7640009765625,0.08410072326660156,0.09831571578979492,-0.14396274089813232
1744896843829813000,12.78081298828125,0.13537216186523438,0.027664661407470703,-0.15321552753448486
1744896843846623000,12.797623046875,0.15052223205566406,-0.054511308670043945,-0.14572876691818237
1744896843863432000,12.814431884765625,0.15283584594726562,-0.12060379981994629,-0.11328035593032837
1744896843880248000,12.831248046875,0.12745952606201172,-0.19238495826721191,-0.07148712873458862
1744896843897057300,12.848057373046874,0.11692428588867188,-0.24259114265441895,-0.061856210231781006
1744896843913852700,12.864852783203125,0.1437826156616211,-0.27814769744873047,-0.0664815902709961
1744896843930683100,12.88168310546875,0.12745094299316406,-0.2746622562408447,-0.06455206871032715
1744896843947503600,12.898503662109375,0.13861751556396484,-0.23456811904907227,-0.022671639919281006
1744896843964315100,12.915315185546875,0.14118003845214844,-0.157057523727417,0.020067870616912842
1744896843981125400,12.93212548828125,0.20494842529296875,-0.10329389572143555,0.002267777919769287
1744896843997921800,12.948921875,0.1998281478881836,-0.048001766204833984,-0.05782073736190796
1744896844014744600,12.96574462890625,0.1637248992919922,0.027581453323364258,-0.13184458017349243
1744896844031546000,12.982546142578125,0.13631916046142578,0.1235659122467041,-0.12609267234802246
1744896844048358100,12.999358154296875,0.13268566131591797,0.17004084587097168,-0.17550891637802124
1744896844065163000,13.0161630859375,0.1833515167236328,0.17545723915100098,-0.16419512033462524
1744896844081983500,13.0329833984375,0.20989036560058594,0.16206860542297363,-0.07336443662643433
1744896844098790700,13.049790771484375,0.19602584838867188,0.15589308738708496,0.03379499912261963
1744896844115604000,13.06660400390625,0.2036285400390625,0.13490605354309082,0.03254622220993042
1744896844132426200,13.08342626953125,0.15288066864013672,0.13338732719421387,-0.0472835898399353
1744896844149236700,13.10023681640625,0.06027793884277344,0.1491835117340088,-0.13197451829910278
1744896844166048500,13.117048583984374,-0.03574943542480469,0.2493126392364502,-0.1347067952156067
1744896844182854400,13.1338544921875,-0.09276866912841797,0.19095516204833984,-0.11188757419586182
1744896844199669200,13.150669189453126,-0.1497659683227539,0.0999763011932373,-0.05148953199386597
1744896844216487000,13.16748681640625,-0.1757192611694336,-0.0055370330810546875,0.03290838003158569
1744896844233292800,13.184292724609374,-0.2053985595703125,-0.12964534759521484,0.06406551599502563
1744896844250086400,13.20108642578125,-0.23443126678466797,-0.2291278839111328,0.10819739103317261
1744896844266915000,13.2179150390625,-0.29735660552978516,-0.2955954074859619,0.12185078859329224
1744896844283721200,13.23472119140625,-0.3933601379394531,-0.31760549545288086,0.12766104936599731
1744896844300521200,13.251521240234375,-0.5095338821411133,-0.29741740226745605,0.09915655851364136
1744896844317337000,13.268337158203124,-0.4349985122680664,-0.22562336921691895,0.09311282634735107
1744896844334146300,13.285146240234376,-0.39827537536621094,-0.2470386028289795,0.12248283624649048
1744896844350955800,13.301955810546875,-0.41997814178466797,-0.18876385688781738,0.33836662769317627
1744896844367762700,13.3187626953125,-0.49233531951904297,-0.11696720123291016,0.562934935092926
1744896844384578300,13.335578369140626,-0.5027561187744141,-0.058851003646850586,0.6431465148925781
1744896844401390000,13.35239013671875,-0.2993936538696289,0.012192487716674805,0.6441122889518738
1744896844418205000,13.369204833984375,0.03582477569580078,0.03363943099975586,0.6156231760978699
1744896844435026700,13.386026611328125,0.31192588806152344,-0.005350351333618164,0.555073618888855
1744896844451836200,13.402836181640625,0.5253124237060547,-0.0357213020324707,0.4776722192764282
1744896844468648400,13.4196484375,0.7036333084106445,-0.077850341796875,0.42712777853012085
1744896844485454800,13.436454833984374,0.8132400512695312,-0.16020441055297852,0.3513825237751007
1744896844502274600,13.453274658203124,0.7614536285400391,-0.24018454551696777,0.28724169731140137
1744896844519060700,13.470060791015625,0.5240888595581055,-0.2399735450744629,0.19817867875099182
1744896844535882200,13.48688232421875,0.27988433837890625,-0.18717741966247559,0.10983675718307495
1744896844552689400,13.503689453125,0.10305976867675781,-0.1944725513458252,0.04029020667076111
1744896844569501000,13.5205009765625,-0.04839134216308594,-0.23273634910583496,-0.004008471965789795
1744896844586311700,13.537311767578124,-0.12195587158203125,-0.24992942810058594,0.013085335493087769
1744896844603123500,13.55412353515625,-0.20215225219726562,-0.23569321632385254,-0.05051562190055847
1744896844619946800,13.57094677734375,-0.21607112884521484,-0.18250226974487305,-0.1298006772994995
1744896844636767700,13.587767822265626,-0.23760414123535156,-0.1448826789855957,-0.13501030206680298
1744896844653568300,13.604568359375,-0.246246337890625,-0.1292741298675537,-0.14335650205612183
1744896844670382300,13.62138232421875,-0.28299808502197266,-0.12670445442199707,-0.17060667276382446
1744896844687164400,13.638164306640626,-0.33944129943847656,-0.08182740211486816,-0.16826403141021729
1744896844704000800,13.655000732421875,-0.40390968322753906,-0.018001556396484375,-0.17330554127693176
1744896844720809700,13.671809814453125,-0.3731555938720703,0.03358721733093262,-0.1914760172367096
1744896844737614300,13.6886142578125,-0.18712329864501953,0.003509044647216797,-0.23481808602809906
1744896844754440000,13.70543994140625,0.022615432739257812,-0.07698321342468262,-0.26006901264190674
1744896844771249200,13.722249267578125,0.1840066909790039,-0.17821121215820312,-0.2288236916065216
1744896844788038400,13.739038330078126,0.257171630859375,-0.22895598411560059,-0.18522824347019196
1744896844804847000,13.75584716796875,0.2553215026855469,-0.2372760772705078,-0.1571994572877884
1744896844821667000,13.7726669921875,0.2241525650024414,-0.21424150466918945,-0.16115233302116394
1744896844838479000,13.78947900390625,0.12102317810058594,-0.19485712051391602,-0.1631280779838562
1744896844855285800,13.80628564453125,-0.0010166168212890625,-0.16106581687927246,-0.16823546588420868
1744896844872104400,13.8231044921875,-0.12307548522949219,-0.11784052848815918,-0.17791108787059784
1744896844888911000,13.8399111328125,-0.17270851135253906,-0.06651115417480469,-0.21523073315620422
1744896844905724400,13.856724365234374,-0.1371612548828125,-0.01666402816772461,-0.27122777700424194
1744896844922547000,13.873546875,-0.08807849884033203,0.008063793182373047,-0.30440667271614075
1744896844939359200,13.890359130859375,-0.004977226257324219,0.017292499542236328,-0.287609338760376
1744896844956189000,13.90718896484375,0.033390045166015625,0.030208826065063477,-0.23679274320602417
1744896844972985000,13.923985107421874,0.11738395690917969,0.07753896713256836,-0.23532336950302124
1744896844989775000,13.940775146484375,0.18954944610595703,0.12261605262756348,-0.29669812321662903
1744896845006597000,13.95759716796875,0.24214553833007812,0.13766765594482422,-0.34413737058639526
1744896845023384000,13.974384033203124,0.3142871856689453,0.1128835678100586,-0.34442031383514404
1744896845040212200,13.991212158203124,0.3478507995605469,0.06740045547485352,-0.31434106826782227
1744896845057022200,14.008022216796874,0.2830848693847656,0.036626577377319336,-0.2870667576789856
1744896845073831400,14.02483154296875,0.13959789276123047,-0.017460107803344727,-0.29232481122016907
1744896845090647000,14.04164697265625,0.011975288391113281,0.014074563980102539,-0.1985202133655548
1744896845107473700,14.0584736328125,-0.051428794860839844,0.009422540664672852,-0.2068348526954651
1744896845124266500,14.0752666015625,-0.11721611022949219,-0.03673911094665527,-0.23866909742355347
1744896845141075700,14.09207568359375,-0.13702678680419922,-0.08059883117675781,-0.1878528892993927
1744896845157885400,14.108885498046876,-0.20125293731689453,-0.13831138610839844,-0.14098596572875977
1744896845174719200,14.12571923828125,-0.28154945373535156,-0.12648677825927734,-0.10101279616355896
1744896845191524600,14.142524658203126,-0.2872200012207031,-0.07690668106079102,-0.05972138047218323
1744896845208350200,14.15935009765625,-0.21477890014648438,-0.04607224464416504,-0.04122760891914368
1744896845225120300,14.176120361328126,-0.08997821807861328,-0.013936281204223633,-0.06962032616138458
1744896845241960000,14.1929599609375,0.06758975982666016,0.0018239021301269531,-0.10229065269231796
1744896845258756400,14.20975634765625,0.16363048553466797,0.04195451736450195,-0.11317296326160431
1744896845275581700,14.226581787109374,0.22258281707763672,0.09932065010070801,-0.10532025992870331
1744896845292374000,14.2433740234375,0.3636960983276367,0.1516714096069336,-0.05807310342788696
1744896845309190000,14.26018994140625,0.5654058456420898,0.1372513771057129,-0.06882382929325104
1744896845325999900,14.276999755859375,0.7627801895141602,0.12076401710510254,-0.1367000937461853
1744896845342811600,14.293811767578125,0.7715330123901367,0.1445176601409912,-0.26137346029281616
1744896845359609000,14.310609130859374,0.676875114440918,0.17813849449157715,-0.33190053701400757
1744896845376436700,14.327436767578124,0.5685768127441406,0.18692302703857422,-0.3070322275161743
1744896845393258500,14.344258544921875,0.510106086730957,0.09605026245117188,-0.2386060357093811
1744896845410070300,14.3610703125,0.43503856658935547,-0.05959272384643555,-0.13882040977478027
1744896845426876000,14.3778759765625,0.34444427490234375,-0.18363618850708008,-0.07438506931066513
1744896845443691800,14.39469189453125,0.25969982147216797,-0.20677447319030762,-0.04084375500679016
1744896845460490000,14.411489990234376,0.21456336975097656,-0.11342525482177734,-0.09080211818218231
1744896845477314800,14.428314697265625,0.18448257446289062,-0.026783227920532227,-0.2808133065700531
1744896845494107400,14.445107421875,0.17035865783691406,0.015053510665893555,-0.4965693950653076
1744896845510923000,14.461923095703124,0.02825927734375,0.008158683776855469,-0.5555433034896851
1744896845527736800,14.47873681640625,-0.09128952026367188,0.06473684310913086,-0.4299304485321045
1744896845544548400,14.49554833984375,-0.13433361053466797,0.1045384407043457,-0.4021357595920563
1744896845561355000,14.51235498046875,-0.1363515853881836,0.08772420883178711,-0.4895477294921875
1744896845578167600,14.52916748046875,-0.16482925415039062,0.08791017532348633,-0.4928889870643616
1744896845594994200,14.545994140625,-0.24911975860595703,0.039937734603881836,-0.42519432306289673
1744896845611803400,14.562803466796876,-0.3790016174316406,-0.06643414497375488,-0.3087615966796875
1744896845628613600,14.579613525390625,-0.5242776870727539,-0.19745659828186035,-0.2364778369665146
1744896845645425400,14.59642529296875,-0.5118741989135742,-0.3131368160247803,-0.22953730821609497
1744896845662210600,14.61321044921875,-0.5040903091430664,-0.4323461055755615,-0.19044563174247742
1744896845679048000,14.6300478515625,-0.5156068801879883,-0.5162596702575684,-0.1450783610343933
1744896845695858200,14.646858154296876,-0.4076108932495117,-0.5366034507751465,-0.08060149848461151
1744896845712670000,14.663669921875,-0.16434764862060547,-0.5996406078338623,0.007304742932319641
1744896845729480000,14.68047998046875,-0.03397846221923828,-0.7150492668151855,0.14017009735107422
1744896845746292000,14.6972919921875,-0.0034627914428710938,-0.76015305519104,0.2701677083969116
1744896845763102000,14.71410205078125,-0.012188911437988281,-0.7100577354431152,0.26070982217788696
1744896845779897300,14.7308974609375,0.02136516571044922,-0.5994164943695068,0.1936345398426056
1744896845796707300,14.747707275390624,0.06969642639160156,-0.5321424007415771,0.19477790594100952
1744896845813529600,14.764529541015625,0.07176971435546875,-0.4840996265411377,0.24989083409309387
1744896845830329300,14.781329345703124,0.06608963012695312,-0.37759995460510254,0.2553895115852356
1744896845847144700,14.798144775390625,0.06099987030029297,-0.25201964378356934,0.2123032510280609
1744896845863955000,14.814954833984375,0.078338623046875,-0.15953755378723145,0.1663902997970581
1744896845880767000,14.83176708984375,0.1311016082763672,-0.09061312675476074,0.12474717199802399
1744896845897594400,14.848594482421875,0.16340065002441406,-0.048999786376953125,0.10194510221481323
1744896845914399200,14.865399169921876,0.13359451293945312,-0.011103153228759766,0.10883598774671555
1744896845931217000,14.882216796875,0.06542778015136719,0.04114079475402832,0.1357860118150711
1744896845948008200,14.89900830078125,0.06875038146972656,0.075439453125,0.14053693413734436
1744896845964836600,14.915836669921875,0.12086105346679688,0.07427310943603516,0.1005149781703949
1744896845981630700,14.932630615234375,0.1926116943359375,0.06018185615539551,0.043978750705718994
1744896845998440400,14.9494404296875,0.13986968994140625,0.034096479415893555,0.04674416780471802
1744896846015255800,14.966255859375,0.033844947814941406,0.03412318229675293,0.10685445368289948
1744896846032065800,14.983065673828126,-0.05089855194091797,0.04629993438720703,0.0841323584318161
1744896846048878000,14.999878173828124,-0.10534095764160156,0.04088187217712402,0.029682591557502747
1744896846065684700,15.016684814453125,-0.12998294830322266,0.03090214729309082,0.03323724865913391
1744896846082489600,15.033489501953126,-0.12817001342773438,0.023716211318969727,0.04648213088512421
1744896846099328500,15.05032861328125,-0.06316566467285156,0.013755321502685547,0.031959593296051025
1744896846116140300,15.067140380859374,0.0021190643310546875,-0.025270938873291016,0.028103172779083252
1744896846132941800,15.08394189453125,0.027685165405273438,-0.05454301834106445,0.05079841613769531
1744896846149758500,15.100758544921876,-0.009346961975097656,-0.030405282974243164,0.06450837850570679
1744896846166568200,15.117568115234375,-0.09787178039550781,0.005898952484130859,0.01851487159729004
1744896846183385300,15.13438525390625,-0.0910482406616211,0.0683450698852539,0.05158701539039612
1744896846200185900,15.151185791015624,-0.045090675354003906,0.08199167251586914,0.038663238286972046
1744896846217002500,15.16800244140625,0.01842498779296875,0.08900117874145508,0.02910253405570984
1744896846233809000,15.184808837890625,0.06657123565673828,0.13344573974609375,0.05034869909286499
1744896846250629000,15.201629150390625,0.07181453704833984,0.13352489471435547,0.08257058262825012
1744896846267417900,15.21841796875,0.17032814025878906,0.09488129615783691,0.12970444560050964
1744896846284232700,15.235232666015625,0.3236865997314453,-0.020659685134887695,0.12932777404785156
1744896846301044500,15.25204443359375,0.3934154510498047,-0.14955425262451172,0.09218409657478333
1744896846317847300,15.268847412109375,0.33686065673828125,-0.20386314392089844,0.02777358889579773
1744896846334665700,15.285665771484375,0.2068939208984375,-0.19341015815734863,0.029296308755874634
1744896846351477800,15.302477783203125,-0.041716575622558594,-0.19321441650390625,0.0539247989654541
1744896846368287700,15.319287841796875,-0.24339675903320312,-0.18636035919189453,0.14646953344345093
1744896846385100000,15.33610009765625,-0.4498624801635742,-0.14400005340576172,0.2597242295742035
1744896846401930000,15.352929931640626,-0.5234003067016602,-0.027617692947387695,0.3297950327396393
1744896846418729700,15.369729736328125,-0.4183626174926758,0.08376955986022949,0.2793565094470978
1744896846435549200,15.386549072265625,-0.15215301513671875,0.1626441478729248,0.1859036386013031
1744896846452358100,15.403358154296875,0.14339160919189453,0.1696000099182129,0.14771080017089844
1744896846469168000,15.420168212890625,0.3766746520996094,0.13906311988830566,0.1372920274734497
1744896846485963000,15.436962890625,0.5201187133789062,0.08389759063720703,0.13360542058944702
1744896846502776300,15.4537763671875,0.5712919235229492,0.029485225677490234,0.11016815900802612
1744896846519585300,15.470585205078125,0.5890655517578125,-0.01543736457824707,0.09366405010223389
1744896846536402000,15.48740185546875,0.5054159164428711,-0.10488605499267578,0.09688392281532288
1744896846553210600,15.504210693359376,0.35479068756103516,-0.1579577922821045,0.11208617687225342
1744896846570001000,15.5210009765625,0.2032155990600586,-0.17670297622680664,0.10119068622589111
1744896846586833400,15.53783349609375,0.040619850158691406,-0.18146204948425293,0.06060144305229187
1744896846603653000,15.554653076171874,-0.08716678619384766,-0.19844698905944824,0.033248841762542725
1744896846620472000,15.57147216796875,-0.2220478057861328,-0.2198944091796875,0.03357401490211487
1744896846637280300,15.5882802734375,-0.33748435974121094,-0.2023777961730957,0.07319363951683044
1744896846654070500,15.605070556640625,-0.42014598846435547,-0.14963889122009277,0.09828132390975952
1744896846670904800,15.62190478515625,-0.4478721618652344,-0.07818436622619629,0.09817644953727722
1744896846687703300,15.638703369140625,-0.3863191604614258,-0.024526357650756836,0.06246718764305115
1744896846704498700,15.655498779296876,-0.26163196563720703,0.0027081966400146484,0.011704981327056885
1744896846721335300,15.672335205078125,-0.07229137420654297,-0.0027763843536376953,-0.013569653034210205
1744896846738130400,15.68913037109375,0.08595752716064453,-0.02845025062561035,-0.017416656017303467
1744896846754943700,15.70594384765625,0.1809377670288086,-0.03585052490234375,-0.017397940158843994
1744896846771754000,15.72275390625,0.1868429183959961,-0.017026662826538086,-0.051239848136901855
1744896846788566500,15.73956640625,0.1824474334716797,0.030901432037353516,-0.1256425827741623
1744896846805373000,15.756373046875,0.13777828216552734,0.049480438232421875,-0.1520770788192749
1744896846822191600,15.773191650390626,0.1054525375366211,0.05834078788757324,-0.15100161731243134
1744896846838998300,15.789998291015625,0.09421062469482422,0.06315875053405762,-0.14687423408031464
1744896846855807200,15.80680712890625,0.06270027160644531,0.06731319427490234,-0.1322609782218933
1744896846872623600,15.82362353515625,0.02337169647216797,0.08415079116821289,-0.17076268792152405
1744896846889432600,15.8404326171875,-0.031183242797851562,0.12306785583496094,-0.21566477417945862
1744896846906246100,15.85724609375,-0.06154441833496094,0.1325664520263672,-0.2517358362674713
1744896846923060700,15.874060791015625,-0.12588119506835938,0.10544848442077637,-0.24455934762954712
1744896846939880200,15.890880126953125,-0.15966415405273438,0.09322524070739746,-0.2102428376674652
1744896846956694500,15.907694580078125,-0.16336631774902344,0.08333611488342285,-0.1745578944683075
1744896846973478700,15.924478759765625,-0.16640758514404297,0.06246805191040039,-0.14881493151187897
1744896846990299400,15.94129931640625,-0.1795024871826172,0.017699003219604492,-0.124068982899189
1744896847007109400,15.958109375,-0.19437885284423828,-0.023174524307250977,-0.07284852862358093
1744896847023918600,15.974918701171875,-0.2091217041015625,-0.0327906608581543,-0.03276205062866211
1744896847040727000,15.99172705078125,-0.1837329864501953,-0.029796123504638672,-0.024649441242218018
1744896847057543700,16.008543701171874,-0.09358978271484375,-0.03517889976501465,-0.04395553469657898
1744896847074376400,16.02537646484375,0.032227516174316406,-0.05667901039123535,-0.03747166693210602
1744896847091169300,16.042169189453126,0.17023944854736328,-0.0779273509979248,-0.008250266313552856
1744896847107973400,16.058973388671873,0.27002811431884766,-0.057102203369140625,0.011801734566688538
1744896847124786400,16.075786376953126,0.33121204376220703,-0.001592874526977539,-0.024311572313308716
1744896847141593000,16.092593017578125,0.3700094223022461,0.052565574645996094,-0.07532283663749695
1744896847158413600,16.10941357421875,0.33292388916015625,0.0779716968536377,-0.0964263528585434
1744896847175220200,16.12622021484375,0.2386941909790039,0.09734487533569336,-0.09137327969074249
1744896847192032300,16.1430322265625,0.15478515625,0.13293004035949707,-0.0843941867351532
1744896847208829200,16.1598291015625,0.08710861206054688,0.14781904220581055,-0.051882579922676086
1744896847225654300,16.176654296875,0.06277179718017578,0.12060904502868652,-0.04258723556995392
1744896847242464500,16.193464599609374,0.04166603088378906,0.05891752243041992,-0.0664532482624054
1744896847259276500,16.210276611328126,0.023095130920410156,0.022626876831054688,-0.07692919671535492
1744896847276092200,16.227092041015624,-0.03359794616699219,-0.03704023361206055,-0.09609691053628922
1744896847292898800,16.24389892578125,-0.07875728607177734,-0.09181547164916992,-0.08370409905910492
1744896847309696000,16.260696044921875,-0.13534259796142578,-0.16688132286071777,-0.0587628036737442
1744896847326521000,16.27752099609375,-0.16564369201660156,-0.2118825912475586,-0.025316372513771057
1744896847343331000,16.2943310546875,-0.17339801788330078,-0.19519519805908203,-0.0015053898096084595
1744896847360142600,16.311142578125,-0.18023967742919922,-0.12972474098205566,0.007848605513572693
1744896847376940300,16.327940185546876,-0.16855716705322266,-0.08004617691040039,0.0017435848712921143
1744896847393762600,16.344762451171874,-0.14669036865234375,-0.046814918518066406,0.0018801987171173096
1744896847410595600,16.361595703125,-0.08736610412597656,-0.031125783920288086,0.027027398347854614
1744896847427401700,16.378401611328126,0.013971328735351562,-0.007863521575927734,0.043555453419685364
1744896847444211200,16.395211181640626,0.13887405395507812,-0.002272367477416992,0.03234438598155975
1744896847461004000,16.412004150390626,0.27469921112060547,0.02570319175720215,0.04206143319606781
1744896847477797600,16.428797607421874,0.3382902145385742,0.019027233123779297,0.027707725763320923
1744896847494632000,16.4456318359375,0.358245849609375,0.04345440864562988,0.02663525938987732
1744896847511442000,16.46244189453125,0.29715538024902344,0.04815983772277832,-0.014351055026054382
1744896847528254200,16.479254150390624,0.20328903198242188,0.051660776138305664,-0.03857816755771637
1744896847545064200,16.496064208984375,0.08502578735351562,0.03975963592529297,-0.03822280466556549
1744896847561879600,16.512879638671876,-0.005349159240722656,-0.0037665367126464844,-0.07843659818172455
1744896847578683600,16.52968359375,-0.05223369598388672,-0.03416609764099121,-0.08688519895076752
1744896847595509500,16.546509521484374,-0.08128166198730469,-0.09069323539733887,-0.07425974309444427
1744896847612322300,16.563322265625,-0.09066581726074219,-0.14253735542297363,-0.03363749384880066
1744896847629134300,16.58013427734375,-0.13923931121826172,-0.18285727500915527,-0.042733997106552124
1744896847645944600,16.596944580078127,-0.1486063003540039,-0.2005922794342041,-0.059501081705093384
1744896847662756900,16.6137568359375,-0.1819477081298828,-0.2016162872314453,-0.07177205383777618
1744896847679580000,16.630579833984374,-0.22784900665283203,-0.1865687370300293,-0.04310682415962219
1744896847696378400,16.64737841796875,-0.22408294677734375,-0.14924883842468262,0.021791785955429077
1744896847713188900,16.66418896484375,-0.11384963989257812,-0.10297966003417969,0.03205767273902893
1744896847729984300,16.680984375,0.05541515350341797,-0.07606005668640137,-0.04288460314273834
1744896847746797000,16.697797119140624,0.2157459259033203,-0.04330921173095703,-0.10886266827583313
1744896847763606000,16.71460595703125,0.29743385314941406,-0.021340608596801758,-0.13094055652618408
1744896847780419300,16.73141943359375,0.31452465057373047,0.02158331871032715,-0.12068282067775726
1744896847797234700,16.748234619140625,0.2879371643066406,0.0281069278717041,-0.14273256063461304
1744896847814041600,16.76504150390625,0.16440868377685547,0.021852493286132812,-0.16455551981925964
1744896847830853400,16.781853271484376,0.03736305236816406,-0.008220672607421875,-0.15630097687244415
1744896847847652600,16.798652587890626,-0.12119197845458984,-0.03203320503234863,-0.09082631021738052
1744896847864476000,16.815475830078125,-0.25221920013427734,-0.0496220588684082,-0.010113269090652466
1744896847881281500,16.832281494140624,-0.3069486618041992,-0.045386552810668945,0.008160114288330078
1744896847898102500,16.8491025390625,-0.28710079193115234,-0.0551915168762207,0.002405896782875061
1744896847914925300,16.86592529296875,-0.1846160888671875,-0.08496284484863281,0.01673668622970581
1744896847931730000,16.88272998046875,-0.0714712142944336,-0.12332749366760254,0.05974893271923065
1744896847948531700,16.89953173828125,0.03390216827392578,-0.13453364372253418,0.07652007043361664
1744896847965339400,16.91633935546875,0.12542247772216797,-0.11419224739074707,0.08158670365810394
1744896847982152400,16.93315234375,0.19013595581054688,-0.0933833122253418,0.05155587196350098
1744896847998964700,16.94996484375,0.2330484390258789,-0.10264110565185547,0.012169063091278076
1744896848015774700,16.966774658203125,0.19722366333007812,-0.12193512916564941,0.005912795662879944
1744896848032586800,16.983586669921873,0.12565326690673828,-0.1219015121459961,0.027605831623077393
1744896848049397000,17.00039697265625,0.05269145965576172,-0.11197972297668457,0.03079219162464142
1744896848066226400,17.017226318359373,0.031341552734375,-0.09379863739013672,0.042140841484069824
1744896848083028200,17.0340283203125,0.05063056945800781,-0.09112858772277832,0.05220972001552582
1744896848099848700,17.0508486328125,0.09601974487304688,-0.0646371841430664,0.042323291301727295
1744896848116656000,17.06765625,0.16251182556152344,-0.020345211029052734,0.022987142205238342
1744896848133466000,17.084466064453125,0.1712808609008789,0.021183252334594727,-0.01999478042125702
1744896848150278100,17.101278076171877,0.25353145599365234,0.09519386291503906,-0.07759344577789307
1744896848167085300,17.118085205078124,0.30556297302246094,0.13631725311279297,-0.0992354154586792
1744896848183900000,17.13489990234375,0.29352283477783203,0.14022397994995117,-0.10477253794670105
1744896848200712700,17.151712646484373,0.2165822982788086,0.15285825729370117,-0.12801915407180786
1744896848217507600,17.168507568359374,0.1943035125732422,0.1849679946899414,-0.08954065293073654
1744896848234320000,17.18531982421875,0.1981048583984375,0.19309163093566895,-0.04355539381504059
1744896848251130000,17.202130126953126,0.2167806625366211,0.11755633354187012,-0.018257826566696167
1744896848267931000,17.218930908203124,0.24536991119384766,0.09245800971984863,0.07022160291671753
1744896848284752100,17.235752197265626,0.27048587799072266,0.04323005676269531,0.09827764332294464
1744896848301564400,17.252564453125,0.3389616012573242,0.04066967964172363,0.09668272733688354
1744896848318374400,17.26937451171875,0.4624776840209961,0.03458213806152344,0.10304147005081177
1744896848335186400,17.2861865234375,0.5461740493774414,0.011543035507202148,0.14725179970264435
1744896848351996400,17.302996337890626,0.5173244476318359,0.02264881134033203,0.21408505737781525
1744896848368808700,17.31980859375,0.4671001434326172,0.07079076766967773,0.22441944479942322
1744896848385620700,17.336620849609375,0.405792236328125,0.10621190071105957,0.17875462770462036
1744896848402430700,17.3534306640625,0.35186290740966797,0.1083674430847168,0.1405133605003357
1744896848419253800,17.370253662109373,0.2975034713745117,0.0712277889251709,0.1264261156320572
1744896848436063000,17.38706298828125,0.20362091064453125,0.03242802619934082,0.09923236072063446
1744896848452867600,17.40386767578125,0.22089385986328125,0.038912057876586914,0.03596791625022888
1744896848469675000,17.420675048828127,0.2405834197998047,0.022700071334838867,0.018293142318725586
1744896848486482400,17.437482421875,0.2379131317138672,0.0328977108001709,0.05600343644618988
1744896848503297300,17.45429736328125,0.25091552734375,0.0042951107025146484,0.114114910364151
1744896848520107300,17.471107177734375,0.2783641815185547,0.07956242561340332,0.17462767660617828
1744896848536921600,17.487921630859375,0.3031778335571289,0.12786102294921875,0.15351761877536774
1744896848553740300,17.504740234375,0.37944602966308594,0.17886066436767578,0.14605677127838135
1744896848570560000,17.52156005859375,0.4089536666870117,0.21117639541625977,0.0623931884765625
1744896848587353600,17.538353515625,0.42641353607177734,0.24144196510314941,0.038188591599464417
1744896848604169700,17.555169677734376,0.39760875701904297,0.29310011863708496,0.005768522620201111
1744896848620988200,17.57198828125,0.41821765899658203,0.3076972961425781,0.005444183945655823
1744896848637770800,17.588770751953124,0.489105224609375,0.3141815662384033,-0.03570219874382019
1744896848654604000,17.60560400390625,0.5586080551147461,0.2991607189178467,-0.07772719860076904
1744896848671422200,17.622422119140627,0.5753917694091797,0.2833573818206787,-0.07414902746677399
1744896848688224000,17.63922412109375,0.5466547012329102,0.2743103504180908,-0.10597233474254608
1744896848705000700,17.656000732421877,0.5176792144775391,0.2574753761291504,-0.15764476358890533
1744896848721840000,17.672840087890624,0.5048503875732422,0.23389792442321777,-0.19235318899154663
1744896848738652700,17.689652587890624,0.45252513885498047,0.19383621215820312,-0.21701638400554657
1744896848755462700,17.706462646484376,0.3770027160644531,0.17606282234191895,-0.185551717877388
1744896848772274400,17.7232744140625,0.30571556091308594,0.13433218002319336,-0.10607822239398956
1744896848789084700,17.740084716796876,0.29868316650390625,0.0892949104309082,-0.012686431407928467
1744896848805894100,17.75689404296875,0.2989768981933594,0.0719451904296875,0.04577779769897461
1744896848822706700,17.773706787109376,0.2890167236328125,0.10385274887084961,0.08554908633232117
1744896848839519000,17.79051904296875,0.3158912658691406,0.13715076446533203,0.14315271377563477
1744896848856329000,17.807328857421876,0.37425804138183594,0.1256098747253418,0.17388668656349182
1744896848873144800,17.824144775390625,0.429534912109375,0.09097456932067871,0.18907684087753296
1744896848889947400,17.840947509765623,0.4938812255859375,0.09314918518066406,0.20429739356040955
1744896848906766600,17.8577666015625,0.5483598709106445,0.1071617603302002,0.22333824634552002
1744896848923564000,17.87456396484375,0.6290073394775391,0.13151216506958008,0.20827633142471313
1744896848940397600,17.8913974609375,0.7235946655273438,0.16167259216308594,0.1703779697418213
1744896848957195300,17.9081953125,0.8083047866821289,0.19639253616333008,0.11063641309738159
1744896848974004700,17.925004638671876,0.9400205612182617,0.20955538749694824,0.0504223108291626
1744896848990820400,17.9418203125,1.0162057876586914,0.2274184226989746,-0.01796582341194153
1744896849007622100,17.9586220703125,1.0184717178344727,0.2573544979095459,-0.092643141746521
1744896849024442600,17.975442626953125,0.9586477279663086,0.3048107624053955,-0.13350807130336761
1744896849041240800,17.99224072265625,0.8581962585449219,0.3356328010559082,-0.11838716268539429
1744896849058060000,18.00906005859375,0.7183904647827148,0.35028982162475586,-0.10892075300216675
1744896849074888000,18.025887939453124,0.5372533798217773,0.3358469009399414,-0.11600363254547119
1744896849091698000,18.042697998046876,0.395599365234375,0.3103785514831543,-0.12756872177124023
1744896849108477200,18.059477294921876,0.36292552947998047,0.23917222023010254,-0.11650857329368591
1744896849125325800,18.076325927734374,0.33176612854003906,0.14322376251220703,-0.056013405323028564
1744896849142115600,18.093115478515625,0.2742195129394531,0.06954741477966309,0.010872036218643188
1744896849158930700,18.1099306640625,0.18679237365722656,0.026784420013427734,0.014394789934158325
1744896849175758000,18.126758056640625,0.10567474365234375,-0.03572678565979004,0.017820149660110474
1744896849192547300,18.14354736328125,-0.02311229705810547,-0.10972380638122559,0.049598634243011475
1744896849209362700,18.16036279296875,-0.173248291015625,-0.10063624382019043,0.13903403282165527
1744896849226172700,18.177172607421873,-0.3037261962890625,-0.009904146194458008,0.1876617670059204
1744896849242985000,18.19398486328125,-0.3658771514892578,0.10271883010864258,0.24196076393127441
1744896849259783700,18.21078369140625,-0.3381786346435547,0.16417145729064941,0.2778377830982208
1744896849276595500,18.227595458984375,-0.2357807159423828,0.18639898300170898,0.32365599274635315
1744896849293426400,18.244426513671876,-0.09256458282470703,0.21076226234436035,0.3520382046699524
1744896849310233900,18.26123388671875,0.045238494873046875,0.23653817176818848,0.29188013076782227
1744896849327039200,18.278039306640625,0.26042842864990234,0.2671065330505371,0.1428084373474121
1744896849343848400,18.294848388671873,0.4364433288574219,0.37146973609924316,0.1354500651359558
1744896849360664300,18.311664306640626,0.5782432556152344,0.3775153160095215,0.11073598265647888
1744896849377452000,18.3284521484375,0.7398872375488281,0.304337739944458,0.18638110160827637
1744896849394283800,18.34528369140625,0.9249458312988281,0.21363234519958496,0.2476288080215454
1744896849411112700,18.36211279296875,1.0633277893066406,0.13822484016418457,0.13814064860343933
1744896849427904000,18.378904052734374,1.0335264205932617,0.1614079475402832,-0.034847527742385864
1744896849444714200,18.39571435546875,0.8662471771240234,0.2686772346496582,-0.130957692861557
1744896849461527800,18.41252783203125,0.6059417724609375,0.37271595001220703,-0.1459541767835617
1744896849478333200,18.429333251953125,0.3859825134277344,0.4232780933380127,-0.10532161593437195
1744896849495150300,18.446150390625,0.3834724426269531,0.5731031894683838,-0.06464678049087524
1744896849511962400,18.46296240234375,0.5335865020751953,0.7373447418212891,-0.24062255024909973
1744896849528772400,18.4797724609375,0.7468500137329102,0.8461360931396484,-0.5380452275276184
1744896849545601300,18.496601318359374,0.9194869995117188,0.8384368419647217,-0.6452805995941162
1744896849562408200,18.513408203125,0.9281978607177734,0.7002706527709961,-0.5657035112380981
1744896849579203800,18.530203857421874,0.9174079895019531,0.5263879299163818,-0.2967602610588074
1744896849596034800,18.547034912109375,0.9275245666503906,0.3262338638305664,-0.08870220184326172
1744896849612842500,18.563842529296874,0.9198036193847656,0.0788116455078125,-0.14299625158309937
1744896849629648600,18.580648681640625,0.8049783706665039,-0.0564882755279541,-0.2832155227661133
1744896849646468600,18.597468505859375,0.5114688873291016,-0.11719918251037598,-0.4087779223918915
1744896849663288300,18.614288330078125,0.16959190368652344,-0.10919809341430664,-0.4087991714477539
1744896849680075500,18.631075439453124,-0.1218881607055664,-0.14616990089416504,-0.3024975657463074
1744896849696883200,18.64788330078125,-0.31900978088378906,-0.23842644691467285,-0.2013150453567505
1744896849713681700,18.664681640625,-0.37105846405029297,-0.3200674057006836,-0.079169861972332
1744896849730507000,18.681507080078124,-0.33495330810546875,-0.373363733291626,-0.06256625056266785
1744896849747317500,18.6983173828125,-0.20630359649658203,-0.3357722759246826,-0.1248609647154808
1744896849764127500,18.71512744140625,0.011950492858886719,-0.2262895107269287,-0.21429550647735596
1744896849780956400,18.731956298828123,0.26029300689697266,-0.16628479957580566,-0.35689765214920044
1744896849797764900,18.748764892578127,0.4093198776245117,-0.17494797706604004,-0.42722445726394653
1744896849814558200,18.76555810546875,0.4530344009399414,-0.18413305282592773,-0.3528185486793518
1744896849831371800,18.782371826171875,0.46686458587646484,-0.20919132232666016,-0.20387579500675201
1744896849848184000,18.79918408203125,0.4900045394897461,-0.235595703125,-0.07118672132492065
1744896849864994000,18.815994140625,0.5297222137451172,-0.23127079010009766,-0.0011045485734939575
1744896849881806000,18.83280615234375,0.574315071105957,-0.19599485397338867,0.03504626452922821
1744896849898626600,18.84962646484375,0.6726531982421875,-0.12085914611816406,0.08783739805221558
1744896849915445200,18.8664453125,0.7754077911376953,-0.04896664619445801,0.014216646552085876
1744896849932235000,18.883235107421875,0.8295392990112305,0.05765223503112793,-0.04642312228679657
1744896849949050400,18.90005029296875,0.7840757369995117,0.11322426795959473,-0.055247336626052856
1744896849965860600,18.916860595703124,0.6907548904418945,0.16572260856628418,-0.026049986481666565
1744896849982672600,18.933672607421876,0.6171636581420898,0.228623628616333,0.017289534211158752
1744896849999496200,18.95049609375,0.6145572662353516,0.26792001724243164,0.02292826771736145
1744896850016294700,18.967294677734376,0.6215600967407227,0.24951410293579102,-0.008438140153884888
1744896850033105400,18.98410546875,0.6449527740478516,0.2393202781677246,0.02552013099193573
1744896850049930800,19.0009306640625,0.5784082412719727,0.20996356010437012,0.03268057107925415
1744896850066740700,19.01774072265625,0.5044984817504883,0.18902873992919922,0.014030158519744873
1744896850083547400,19.03454736328125,0.4968719482421875,0.15338778495788574,0.0025733113288879395
1744896850100364300,19.0513642578125,0.5323686599731445,0.06375765800476074,0.01959863305091858
1744896850117179100,19.06817919921875,0.5164966583251953,-0.037804603576660156,0.07820907235145569
1744896850133981700,19.084981689453127,0.4997749328613281,-0.11115407943725586,0.12691783905029297
1744896850150801200,19.10180126953125,0.4462270736694336,-0.14524316787719727,0.13009676337242126
1744896850167590100,19.118590087890624,0.3960437774658203,-0.14090347290039062,0.08838137984275818
1744896850184404500,19.135404541015625,0.39077281951904297,-0.1344621181488037,0.011256098747253418
1744896850201213000,19.152212890625,0.34586429595947266,-0.12764358520507812,-0.022014230489730835
1744896850218018300,19.169018310546875,0.28420352935791016,-0.12778139114379883,-0.006495475769042969
1744896850234834400,19.18583447265625,0.24960899353027344,-0.11238670349121094,-0.004076093435287476
1744896850251652900,19.20265283203125,0.2674827575683594,-0.0801393985748291,-0.009903669357299805
1744896850268477400,19.2194775390625,0.29833221435546875,-0.05300164222717285,-0.034354716539382935
1744896850285267200,19.23626708984375,0.3775358200073242,-0.019326210021972656,-0.03779107332229614
1744896850302080500,19.25308056640625,0.4394826889038086,-0.01850128173828125,-0.02370429039001465
1744896850318882000,19.269882080078126,0.45291805267333984,-0.022115468978881836,0.0336645245552063
1744896850335702500,19.28670263671875,0.40706443786621094,0.0015683174133300781,0.09109288454055786
1744896850352518000,19.303517822265626,0.3718118667602539,0.053872108459472656,0.11886870861053467
1744896850369326300,19.320326416015625,0.35924339294433594,0.0942087173461914,0.07856017351150513
1744896850386138400,19.337138427734374,0.36871337890625,0.13078784942626953,0.04134145379066467
1744896850402948600,19.353948486328125,0.3351764678955078,0.16317987442016602,0.032682597637176514
1744896850419761400,19.370761474609374,0.26956748962402344,0.19526124000549316,0.029371052980422974
1744896850436572700,19.38757275390625,0.22078323364257812,0.23060846328735352,0.026941150426864624
1744896850453380000,19.404380126953125,0.2456951141357422,0.26291584968566895,0.02329769730567932
1744896850470193700,19.421193603515626,0.44205188751220703,0.2784996032714844,-0.07674875855445862
1744896850487004400,19.43800439453125,0.6388711929321289,0.22042274475097656,-0.16777414083480835
1744896850503811800,19.454811767578125,0.6617603302001953,0.1708970069885254,-0.14912337064743042
1744896850520642800,19.471642822265625,0.6037178039550781,0.15894317626953125,-0.061812132596969604
1744896850537447200,19.488447265625,0.461151123046875,0.22808289527893066,-0.015127420425415039
1744896850554270500,19.5052705078125,0.39984989166259766,0.3027663230895996,-0.011184215545654297
1744896850571073500,19.522073486328125,0.3926239013671875,0.5274240970611572,0.1997361183166504
1744896850587868700,19.53886865234375,0.2884063720703125,0.30570101737976074,0.0398174524307251
1744896850604680000,19.555679931640626,0.24980831146240234,0.3178737163543701,-0.012147068977355957
1744896850621507600,19.572507568359374,0.1519012451171875,0.3344993591308594,-0.22872322797775269
1744896850638333200,19.589333251953125,0.06457233428955078,0.32428956031799316,-0.32883989810943604
1744896850655113500,19.606113525390626,-0.11827945709228516,0.243988037109375,-0.29911595582962036
1744896850671929300,19.622929443359375,-0.3707771301269531,0.07145261764526367,-0.10381948947906494
1744896850688737800,19.63973779296875,-0.5968008041381836,-0.04433012008666992,0.264335572719574
1744896850705537000,19.656537109375,-0.6812114715576172,-0.1112830638885498,0.6860364079475403
1744896850722360000,19.673360107421875,-0.704869270324707,-0.4550666809082031,0.36369407176971436
1744896850739170300,19.69017041015625,-0.7260923385620117,-0.5857484340667725,0.09300804138183594
1744896850755995000,19.706994873046874,-0.6750926971435547,-0.5680563449859619,-0.1830546259880066
1744896850772807700,19.7238076171875,-0.5511140823364258,-0.40914297103881836,-0.2633330225944519
1744896850789604400,19.740604248046875,-0.45841312408447266,-0.5937726497650146,-0.34690654277801514
1744896850806409200,19.7574091796875,-0.34129810333251953,-0.6438064575195312,-0.27577120065689087
1744896850823226400,19.774226318359375,-0.14677143096923828,-0.31273794174194336,0.08265656232833862
1744896850840050400,19.791050537109374,-0.06585121154785156,-0.29801416397094727,0.16249918937683105
1744896850856848600,19.8078486328125,0.04990673065185547,-0.4242088794708252,0.0827072262763977
1744896850873654000,19.824654052734374,0.2559652328491211,-0.43359243869781494,0.13816916942596436
1744896850890470400,19.841470458984375,0.39481639862060547,-0.4010803699493408,0.13364213705062866
1744896850907280600,19.85828076171875,0.3754920959472656,-0.3404414653778076,0.02643871307373047
1744896850924085800,19.875085693359374,0.20174884796142578,-0.22441816329956055,-0.11847394704818726
1744896850940903000,19.89190283203125,-0.0027742385864257812,-0.17347359657287598,-0.20660394430160522
1744896850957704000,19.908703857421877,-0.25641632080078125,-0.12244272232055664,-0.17434382438659668
1744896850974521900,19.92552197265625,-0.4279975891113281,-0.04365420341491699,-0.13098394870758057
1744896850991340500,19.942340576171876,-0.42154598236083984,0.07686996459960938,-0.04267007112503052
1744896851008162600,19.95916259765625,-0.27414989471435547,0.1440737247467041,0.025334417819976807
1744896851024973000,19.97597314453125,-0.12471675872802734,0.10133123397827148,0.059854090213775635
1744896851041765600,19.992765625,-0.07356548309326172,0.04494953155517578,0.07386940717697144
1744896851058595600,20.009595703125,-0.032301902770996094,0.01565241813659668,0.0606001615524292
1744896851075398400,20.0263984375,0.012555122375488281,0.02521061897277832,-0.020292937755584717
1744896851092225000,20.04322509765625,0.090423583984375,0.04885292053222656,-0.08872222900390625
1744896851109011000,20.060010986328123,0.12815475463867188,0.03767132759094238,-0.11887741088867188
1744896851125823000,20.076822998046875,0.11408710479736328,0.0013110637664794922,-0.11186021566390991
1744896851142619600,20.09361962890625,0.12504291534423828,0.01718878746032715,-0.015507221221923828
1744896851159448000,20.110447998046876,0.16048717498779297,0.056771278381347656,0.1308651566505432
1744896851176258000,20.127258056640624,0.20122814178466797,0.047204017639160156,0.23283398151397705
1744896851193070000,20.144070068359376,0.23433399200439453,0.042556047439575195,0.20465224981307983
1744896851209867300,20.1608671875,0.2714118957519531,0.04743671417236328,0.1257229447364807
1744896851226692400,20.1776923828125,0.27138805389404297,0.07795071601867676,0.05207902193069458
1744896851243499500,20.19449951171875,0.2346210479736328,0.11994314193725586,0.003571748733520508
1744896851260315000,20.21131494140625,0.1574850082397461,0.1222681999206543,-0.004973769187927246
1744896851277146600,20.228146728515625,0.05495166778564453,0.12037229537963867,0.05030936002731323
1744896851293950500,20.244950439453124,-0.046550750732421875,0.06995916366577148,0.11929386854171753
1744896851310747600,20.26174755859375,-0.09900474548339844,0.04505777359008789,0.1659640669822693
1744896851327558700,20.27855859375,-0.12317562103271484,0.02844977378845215,0.11869323253631592
1744896851344369000,20.295368896484376,-0.12259387969970703,0.009539604187011719,0.07531613111495972
1744896851361180700,20.3121806640625,-0.18083667755126953,-0.034184932708740234,0.053903937339782715
1744896851377971700,20.3289716796875,-0.23390579223632812,-0.08449721336364746,0.09378963708877563
1744896851394803000,20.345802978515625,-0.2576885223388672,-0.1084446907043457,0.13092690706253052
1744896851411609900,20.36260986328125,-0.19603443145751953,-0.11848688125610352,0.10299348831176758
1744896851428428500,20.379428466796874,-0.08935165405273438,-0.1234891414642334,0.05529904365539551
1744896851445235200,20.396235107421877,-0.046601295471191406,-0.12548017501831055,0.0000749826431274414
1744896851462047200,20.413047119140625,-0.034740447998046875,-0.07066774368286133,-0.007638275623321533
1744896851478844400,20.429844482421874,-0.008688926696777344,-0.050232648849487305,-0.01966157555580139
1744896851495669500,20.44666943359375,-0.000171661376953125,-0.03091263771057129,-0.04515966773033142
1744896851512497700,20.46349755859375,0.0008544921875,-0.031719207763671875,-0.05104312300682068
1744896851529304000,20.480303955078124,-0.013625144958496094,-0.03438878059387207,-0.057754695415496826
1744896851546099000,20.497098876953125,0.02111530303955078,0.009345531463623047,-0.03699922561645508
1744896851562923800,20.513923828125,0.05141735076904297,0.06437110900878906,-0.1082492470741272
1744896851579725300,20.530725341796874,0.09487438201904297,0.07899141311645508,-0.1752331256866455
1744896851596550100,20.547550048828125,0.113006591796875,0.09304499626159668,-0.12807847559452057
1744896851613359600,20.564359619140625,0.13299274444580078,0.12086677551269531,-0.08091479539871216
1744896851630155300,20.5811552734375,0.1038961410522461,0.03910493850708008,-0.05861181020736694
1744896851646968000,20.597968017578125,0.11931991577148438,0.05215311050415039,-0.011748850345611572
1744896851663764000,20.614763916015626,0.0681447982788086,-0.0015003681182861328,-0.042271703481674194
1744896851680593400,20.631593505859374,-0.004619598388671875,-0.010715484619140625,-0.05180370807647705
1744896851697402400,20.64840234375,-0.08876705169677734,0.006305217742919922,-0.03076338768005371
1744896851714212600,20.665212646484374,-0.10562896728515625,-0.008017778396606445,-0.02636924386024475
1744896851731041300,20.682041259765626,-0.11027908325195312,-0.06307387351989746,-0.022093117237091064
1744896851747831800,20.698831787109373,-0.07445716857910156,-0.04586005210876465,0.09104928374290466
