time,seconds_elapsed,z,y,x
1744896831154262300,0.10526220703125,9.619745254516602,1.1880364418029785,-0.16869398951530457
1744896831171071200,0.1220712890625,9.720842361450195,1.0839486122131348,-0.22193430364131927
1744896831187874600,0.13887451171875,9.825528144836426,1.074975609779358,-0.32243284583091736
1744896831204696000,0.155696044921875,9.748957633972168,1.074975609779358,-0.389431893825531
1744896831221508400,0.17250830078125,9.67777156829834,1.0929217338562012,-0.2267199456691742
1744896831238305300,0.18930517578125,9.497113227844238,1.1527422666549683,-0.005982056725770235
1744896831255130400,0.20613037109375,9.42054271697998,1.2137593030929565,0.1423729509115219
1744896831271940400,0.2229404296875,9.582656860351562,1.2915260791778564,0.15672987699508667
1744896831288752400,0.23975244140625,9.801599502563477,1.2598211765289307,-0.01136590726673603
1744896831305562400,0.256562255859375,10.155138969421387,1.195214867591858,-0.050847481936216354
1744896831322378000,0.2733779296875,10.269994735717773,1.153340458869934,-0.13220344483852386
1744896831339198500,0.290198486328125,10.188638687133789,1.1527422666549683,-0.12741780281066895
1744896831355993900,0.306993896484375,10.103095054626465,1.1473584175109863,-0.12203395366668701
1744896831372820700,0.32382080078125,9.997811317443848,1.1473584175109863,-0.15553347766399384
1744896831389632500,0.340632568359375,9.826126098632812,1.1030912399291992,-0.20757736265659332
1744896831406442200,0.357442138671875,9.662816047668457,1.1599208116531372,-0.25004997849464417
1744896831423254500,0.374254638671875,9.527621269226074,1.2550355195999146,-0.31106695532798767
1744896831440064800,0.391064697265625,9.431310653686523,1.317248821258545,-0.3678964674472809
1744896831456876500,0.40787646484375,9.4121675491333,1.3549357652664185,-0.33918261528015137
1744896831473683000,0.424682861328125,9.470193862915039,1.397408366203308,-0.1818545162677765
1744896831490503200,0.441503173828125,9.575477600097656,1.4117653369903564,-0.06699903309345245
1744896831507319000,0.458319091796875,9.66102123260498,1.4075778722763062,-0.09152546525001526
1744896831524120800,0.475120849609375,9.656235694885254,1.4273186922073364,-0.1579262912273407
1744896831540931300,0.491931396484375,9.817750930786133,1.4428720474243164,-0.20159530639648438
1744896831557726200,0.508726318359375,9.828518867492676,1.3710874319076538,-0.18723836541175842
1744896831574558200,0.52555810546875,9.820143699645996,1.2891331911087036,-0.08255238085985184
1744896831591360500,0.542360595703125,9.825528144836426,1.212562918663025,-0.030508488416671753
1744896831608166000,0.559165771484375,9.750752449035645,1.1060823202133179,0.05024927482008934
1744896831624987400,0.5759873046875,9.736993789672852,1.0582258701324463,0.10289137065410614
1744896831641780500,0.592780517578125,9.708279609680176,1.0390832424163818,0.08374879509210587
1744896831658594600,0.609594482421875,9.746564865112305,1.0444670915603638,0.02153540402650833
1744896831675405600,0.626405517578125,9.765109062194824,1.073180913925171,-0.02632104977965355
1744896831700624400,0.651624267578125,9.67777156829834,1.168893814086914,-0.1256231814622879
1744896831717422800,0.6684228515625,9.638887405395508,1.2406785488128662,-0.15912270545959473
1744896831734241000,0.685240966796875,9.627521514892578,1.327418327331543,-0.2829512655735016
1744896831751059200,0.70205908203125,9.698110580444336,1.3902299404144287,-0.363709032535553
1744896831767854000,0.71885400390625,9.711270332336426,1.4673985242843628,-0.43489551544189453
1744896831784677400,0.735677490234375,9.739386558532715,1.5152549743652344,-0.49232324957847595
1744896831801488400,0.75248828125,9.78245735168457,1.5589239597320557,-0.46360939741134644
1744896831818287600,0.76928759765625,9.80100154876709,1.5828521251678467,-0.44446679949760437
1744896831835113700,0.78611376953125,9.882357597351074,1.5643078088760376,-0.5018945336341858
1744896831851931600,0.802931640625,9.91107177734375,1.573280930519104,-0.4019941985607147
1744896831868750800,0.819750732421875,9.91286563873291,1.4105689525604248,-0.32602208852767944
1744896831885540900,0.836540771484375,9.900303840637207,1.3286148309707642,-0.1782652884721756
1744896831902368000,0.853367919921875,9.870393753051758,1.5236297845840454,-0.06759724020957947
1744896831919163400,0.870163330078125,9.717850685119629,1.5038890838623047,-0.08614161610603333
1744896831935974100,0.88697412109375,9.622138023376465,1.532004714012146,-0.06699903309345245
1744896831952782000,0.903781982421875,9.53659439086914,1.5595221519470215,0.04785645380616188
1744896831969612800,0.92061279296875,9.55214786529541,1.4590235948562622,0.08554340898990631
1744896831986407200,0.9374072265625,9.623334884643555,1.573280930519104,0.23389841616153717
1744896832003234600,0.954234619140625,9.628718376159668,1.4919248819351196,0.20518454909324646
1744896832020046800,0.971046875,9.479764938354492,1.5774682760238647,0.19142581522464752
1744896832036856600,0.987856689453125,9.416953086853027,1.6683956384658813,0.17766708135604858
1744896832053660000,1.004659912109375,9.469595909118652,1.6307085752487183,0.13459627330303192
1744896832070483000,1.02148291015625,9.503094673156738,1.568495273590088,0.10049854964017868
1744896832087290400,1.038290283203125,9.517452239990234,1.4931213855743408,-0.05742774158716202
1744896832104103400,1.055103515625,9.464211463928223,1.5170495510101318,-0.12382857501506805
1744896832120918300,1.071918212890625,9.487542152404785,1.5553346872329712,-0.12861421704292297
1744896832137684500,1.0886845703125,9.622138023376465,1.469791293144226,-0.11485548317432404
1744896832154504400,1.10550439453125,9.694520950317383,1.3704891204833984,-0.19202402234077454
1744896832171334700,1.122334716796875,9.736394882202148,1.5278172492980957,-0.12442677468061447
1744896832188142800,1.139142822265625,9.678369522094727,1.5756736993789673,-0.17168502509593964
1744896832204951600,1.15595166015625,9.615557670593262,1.6522440910339355,-0.21415762603282928
1744896832221767200,1.17276708984375,9.609575271606445,1.7575281858444214,-0.23270200192928314
1744896832238562800,1.189562744140625,9.619147300720215,1.7527425289154053,-0.28534409403800964
1744896832255387000,1.206386962890625,9.604789733886719,1.7479569911956787,-0.2757728099822998
1744896832272198100,1.2231982421875,9.623932838439941,1.7431713342666626,-0.19980068504810333
1744896832289009400,1.240009521484375,9.65384292602539,1.6947166919708252,-0.11425728350877762
1744896832305819600,1.256819580078125,9.673583984375,1.6372889280319214,-0.047258246690034866
1744896832322631200,1.273631103515625,9.78963565826416,1.5134602785110474,0.023330021649599075
1744896832339459000,1.290458984375,9.8871431350708,1.3746765851974487,0.0891326442360878
1744896832356260000,1.307260009765625,9.892526626586914,1.2789636850357056,0.08434699475765228
1744896832373078300,1.324078369140625,9.858428955078125,1.3363914489746094,0.06041877344250679
1744896832389889800,1.340889892578125,9.757930755615234,1.4219348430633545,0.1136590763926506
1744896832406699800,1.35769970703125,9.671789169311523,1.44945228099823,0.1860419660806656
1744896832423507500,1.374507568359375,9.57607650756836,1.5014961957931519,0.2147558331489563
1744896832440330800,1.391330810546875,9.57069206237793,1.5493526458740234,0.2105683982372284
1744896832457133000,1.408133056640625,9.652048110961914,1.4979069232940674,0.09990034252405167
1744896832473942800,1.42494287109375,9.689735412597656,1.5176477432250977,0.03349951654672623
1744896832490754300,1.44175439453125,9.736993789672852,1.555932879447937,0.009571290574967861
1744896832507569700,1.458569580078125,9.678369522094727,1.6564314365386963,0.005383851006627083
1744896832524377300,1.47537744140625,9.620942115783691,1.6893328428268433,0.024526432156562805
1744896832541188900,1.49218896484375,9.591629981994629,1.7371892929077148,0.005982056725770235
1744896832557984500,1.508984619140625,9.677172660827637,1.7282161712646484,-0.0849452018737793
1744896832574810600,1.525810546875,9.69212818145752,1.6660027503967285,-0.09032905846834183
1744896832591622100,1.5426220703125,9.688538551330566,1.561316728591919,-0.11964113265275955
1744896832608433200,1.55943310546875,9.683155059814453,1.689931035041809,-0.023330021649599075
1744896832625227000,1.57622705078125,9.683155059814453,1.7276179790496826,0.06281159073114395
1744896832642041000,1.593041015625,9.687342643737793,1.8179470300674438,0.2063809484243393
1744896832658852400,1.609852294921875,9.573683738708496,1.7928223609924316,0.3116651475429535
1744896832675663400,1.626663330078125,9.497711181640625,1.7730815410614014,0.37866419553756714
1744896832692474600,1.643474609375,9.479166984558105,1.7629120349884033,0.3978067636489868
1744896832709287700,1.66028759765625,9.522835731506348,1.6295121908187866,0.3445664644241333
1744896832726096600,1.6770966796875,9.657432556152344,1.587039589881897,0.4540380835533142
1744896832742908000,1.693907958984375,9.682557106018066,1.576870083808899,0.6113662123680115
1744896832759707000,1.710706787109375,9.596415519714355,1.6091731786727905,0.6448656916618347
1744896832776525000,1.727525146484375,9.658628463745117,1.5810575485229492,0.6305087804794312
1744896832793344000,1.744343994140625,9.77826976776123,1.500898003578186,0.5006981492042542
1744896832810156800,1.76115673828125,9.815957069396973,1.454237937927246,0.4001995921134949
1744896832826963200,1.777963134765625,9.887741088867188,1.4213366508483887,0.357128769159317
1744896832843786800,1.794786865234375,9.873982429504395,1.3926228284835815,0.3475574851036072
1744896832860586000,1.8115859375,9.801599502563477,1.4213366508483887,0.28534409403800964
1744896832877414000,1.828413818359375,9.661619186401367,1.5355939865112305,0.16689938306808472
1744896832894217500,1.845217529296875,9.57906723022461,1.5882359743118286,0.05742774158716202
1744896832911015000,1.862014892578125,9.550353050231934,1.5882359743118286,0.04366901144385338
1744896832927826200,1.878826171875,9.559925079345703,1.5547364950180054,0.02392822690308094
1744896832944654300,1.895654296875,9.507881164550781,1.5499508380889893,0.024526432156562805
1744896832961464800,1.91246484375,9.55513858795166,1.5930216312408447,0.010169495828449726
1744896832978256000,1.929255859375,9.564111709594727,1.5792629718780518,-0.09511470049619675
1744896832995091000,1.946091064453125,9.519845008850098,1.6372889280319214,-0.23808585107326508
1744896833011898000,1.962898193359375,9.490532875061035,1.6618152856826782,-0.3810569941997528
1744896833028709400,1.97970947265625,9.580862045288086,1.6193426847457886,-0.4534398913383484
1744896833045492200,1.9964921875,9.716055870056152,1.5625132322311401,-0.3678964674472809
1744896833062331100,2.0133310546875,9.81356430053711,1.3573286533355713,-0.32123643159866333
1744896833079138300,2.03013818359375,9.992427825927734,1.1617153882980347,-0.24646073579788208
1744896833095954400,2.046954345703125,10.218548774719238,0.9337990283966064,-0.2715853750705719
1744896833112746500,2.06374658203125,10.265807151794434,0.8727820515632629,-0.49172505736351013
1744896833129565000,2.08056494140625,10.1276216506958,0.6963114142417908,-0.7262216806411743
1744896833146372600,2.09737255859375,9.780662536621094,0.5509474277496338,-0.7782655358314514
1744896833163183900,2.114183837890625,9.253643035888672,0.729810893535614,-0.7902296781539917
1744896833179994400,2.130994384765625,8.58903694152832,0.8309076428413391,-0.7262216806411743
1744896833196806000,2.147805908203125,8.263612747192383,1.095314621925354,-0.3852444589138031
1744896833213614300,2.1646142578125,8.410771369934082,1.2388839721679688,-0.2512463629245758
1744896833230430700,2.1814306640625,8.639883995056152,1.1126625537872314,-0.4911268353462219
1744896833247238700,2.19823876953125,9.017950057983398,1.0336993932724,-0.5497509837150574
1744896833264034000,2.215033935546875,9.110074043273926,1.046859860420227,-0.25363919138908386
1744896833280860200,2.231860107421875,8.968897819519043,1.1012966632843018,0.2721835672855377
1744896833297659400,2.248659423828125,8.836095809936523,1.1419745683670044,0.5545366406440735
1744896833314479900,2.26547998046875,8.669196128845215,1.1024930477142334,0.5688936114311218
1744896833331294700,2.282294677734375,8.626724243164062,1.1066805124282837,0.6023930907249451
1744896833348109300,2.299109375,8.698508262634277,1.0360921621322632,0.5497509837150574
1744896833364930000,2.315929931640625,9.105886459350586,0.9230313301086426,0.5814558863639832
1744896833381739800,2.33273974609375,9.780662536621094,0.8446664214134216,0.7465606927871704
1744896833398537700,2.349537841796875,10.441082000732422,0.7663014531135559,0.882951557636261
1744896833415367400,2.366367431640625,10.755738258361816,0.8111668825149536,0.9487541913986206
1744896833432165000,2.3831650390625,11.082956314086914,1.0378868579864502,0.8392825126647949
1744896833448990500,2.399990478515625,11.614761352539062,1.210170030593872,0.5473581552505493
1744896833465796000,2.416796142578125,12.366106986999512,1.2640085220336914,0.12023933976888657
1744896833482587400,2.43358740234375,12.495320320129395,1.155733346939087,-0.02871387079358101
1744896833499423200,2.45042333984375,12.174681663513184,1.3441680669784546,0.19322042167186737
1744896833516225500,2.4672255859375,11.474781036376953,1.6893328428268433,0.17228323221206665
1744896833533043700,2.484043701171875,10.510473251342773,1.963310956954956,-0.22013968229293823
1744896833549853200,2.500853271484375,9.890732765197754,2.1337995529174805,-0.6382854580879211
1744896833566663200,2.5176630859375,9.92243766784668,2.0931215286254883,-1.073180913925171
1744896833583473400,2.534473388671875,10.26760196685791,1.6390835046768188,-1.6295121908187866
1744896833600276500,2.5512763671875,10.620543479919434,1.0959128141403198,-1.7048860788345337
1744896833617082400,2.568082275390625,10.560124397277832,0.47796630859375,-1.5451651811599731
1744896833633891000,2.58489111328125,10.090533256530762,0.3732803463935852,-1.2095718383789062
1744896833650704600,2.60170458984375,9.176474571228027,0.5970092415809631,-1.1108678579330444
1744896833667517700,2.618517578125,8.21994400024414,0.8213363885879517,-1.0259226560592651
1744896833684326400,2.635326416015625,7.435098171234131,0.9936196208000183,-1.0139585733413696
1744896833701137700,2.6521376953125,6.885347366333008,1.0719845294952393,-1.0737791061401367
1744896833717927700,2.668927734375,6.775277137756348,1.1383854150772095,-1.0348957777023315
1744896833734759700,2.685759765625,7.213762283325195,1.179063320159912,-1.093519926071167
1744896833751571000,2.702571044921875,8.114660263061523,1.2329018115997314,-1.2867404222488403
1744896833768382200,2.71938232421875,9.432506561279297,1.211964726448059,-1.2903295755386353
1744896833785192400,2.7361923828125,10.456036567687988,1.0737791061401367,-1.217348575592041
1744896833802003700,2.753003662109375,11.002198219299316,1.0085747241973877,-1.042074203491211
1744896833818803000,2.769802978515625,11.346166610717773,1.0911271572113037,-0.8279166221618652
1744896833835626200,2.786626220703125,11.769098281860352,1.0103694200515747,-0.4426721930503845
1744896833852449800,2.80344970703125,12.198610305786133,0.7094719409942627,-0.05802594870328903
1744896833869266200,2.82026611328125,12.422338485717773,0.3128615617752075,0.06340979784727097
1744896833886072600,2.837072509765625,12.152547836303711,-0.01734796352684498,-0.137587308883667
1744896833902884000,2.853884033203125,11.512468338012695,-0.05383851006627083,-0.2793620526790619
1744896833919678200,2.87067822265625,10.631311416625977,0.08614161610603333,-0.5246263742446899
1744896833936505900,2.887505859375,9.744172096252441,0.3690928816795349,-0.7405785918235779
1744896833953300700,2.90430078125,8.93420124053955,0.6329016089439392,-0.8566305041313171
1744896833970129000,2.92112890625,8.319844245910645,0.9643075466156006,-0.8153542876243591
1744896833986945000,2.937945068359375,7.974081516265869,1.272383451461792,-0.641276478767395
1744896834003745800,2.954745849609375,7.988438606262207,1.3860424757003784,-0.45942193269729614
1744896834020565800,2.971565673828125,8.471190452575684,1.4500504732131958,-0.259621262550354
1744896834037359000,2.988359130859375,9.264410972595215,1.4207384586334229,-0.23808585107326508
1744896834054166800,3.005166748046875,10.094720840454102,1.3639088869094849,-0.3936193287372589
1744896834070995000,3.021994873046875,10.74855899810791,1.3298112154006958,-0.5341976284980774
1744896834087776500,3.038776611328125,11.044671058654785,1.2652050256729126,-0.592223584651947
1744896834104603400,3.055603271484375,10.99741268157959,1.2693923711776733,-0.5826523303985596
1744896834121413600,3.07241357421875,10.723434448242188,1.3645070791244507,-0.7058826684951782
1744896834138211800,3.0892119140625,10.153345108032227,1.4769697189331055,-0.914058268070221
1744896834155036700,3.10603662109375,9.506684303283691,1.6223337650299072,-1.0354939699172974
1744896834171847400,3.122847412109375,8.990432739257812,1.695314884185791,-0.9912267923355103
1744896834188657700,3.13965771484375,8.704490661621094,1.693520188331604,-0.8949156403541565
1744896834205469400,3.156469482421875,8.666803359985352,1.6354942321777344,-0.8327022790908813
1744896834222280000,3.173280029296875,8.749356269836426,1.5828521251678467,-0.7615157961845398
1744896834239091500,3.190091552734375,8.82114028930664,1.5499508380889893,-0.747757077217102
1744896834255902200,3.206902099609375,8.888139724731445,1.5595221519470215,-0.6999006271362305
1744896834272713200,3.223713134765625,8.94975471496582,1.612762451171875,-0.6903293132781982
1744896834289524500,3.2405244140625,8.996415138244629,1.7324036359786987,-0.6658028960227966
1744896834306336000,3.2573359375,9.014959335327148,1.8843477964401245,-0.5222335457801819
1744896834323146200,3.274146240234375,9.116056442260742,1.9459630250930786,-0.259621262550354
1744896834339946500,3.290946533203125,9.312865257263184,1.97407865524292,0.0364905446767807
1744896834356754200,3.307754150390625,9.53779125213623,1.9848463535308838,0.1453639715909958
1744896834373589200,3.32458935546875,9.738189697265625,2.0333011150360107,0.18843477964401245
1744896834390412300,3.341412353515625,9.952347755432129,2.101496458053589,0.1543370634317398
1744896834407215900,3.3582158203125,10.152148246765137,2.132004976272583,0.06819544732570648
1744896834424022800,3.375022705078125,10.271191596984863,2.104487419128418,-0.01375873014330864
1744896834440832500,3.39183251953125,10.409377098083496,2.0715861320495605,-0.07597211748361588
1744896834457652200,3.40865234375,10.477572441101074,1.9669002294540405,-0.07657032459974289
1744896834474459600,3.425459716796875,10.398011207580566,1.8370895385742188,-0.014955141581594944
1744896834491271000,3.44227099609375,10.14616584777832,1.7443677186965942,0.08554340898990631
1744896834508065800,3.459065673828125,9.754940032958984,1.6893328428268433,0.08614161610603333
1744896834524895200,3.475895263671875,9.358927726745605,1.6444673538208008,0.058624155819416046
1744896834541704000,3.492703857421875,9.010771751403809,1.5996019840240479,0.01615155301988125
1744896834558491400,3.509491455078125,8.838488578796387,1.5750755071640015,-0.05024927482008934
1744896834575317000,3.52631689453125,8.876773834228516,1.5140584707260132,-0.18424734473228455
1744896834592123100,3.543123046875,9.07717227935791,1.4488540887832642,-0.3284149169921875
1744896834608931000,3.55993115234375,9.196813583374023,1.3824533224105835,-0.3529413342475891
1744896834625748500,3.57674853515625,9.236295700073242,1.358525037765503,-0.20518454909324646
1744896834642557000,3.593556884765625,9.17886734008789,1.4428720474243164,-0.018544375896453857
1744896834659364000,3.610364013671875,9.068199157714844,1.566102385520935,0.06400800496339798
1744896834676182000,3.62718212890625,9.072386741638184,1.6576279401779175,0.025722842663526535
1744896834692990000,3.643989990234375,9.19023323059082,1.734796404838562,-0.05503492057323456
1744896834709801000,3.660801025390625,9.34277629852295,1.7599210739135742,-0.08434699475765228
1744896834726612000,3.677612060546875,9.438488960266113,1.7694923877716064,0.001794616924598813
1744896834743423000,3.694423095703125,9.540184020996094,1.7455641031265259,0.1537388563156128
1744896834760234500,3.711234375,9.732208251953125,1.6408780813217163,0.2392822653055191
1744896834777045500,3.72804541015625,9.896116256713867,1.4931213855743408,0.28115665912628174
1744896834793853000,3.74485302734375,9.978668212890625,1.4123635292053223,0.3517449200153351
1744896834810670000,3.761670166015625,9.954740524291992,1.3932210206985474,0.32303106784820557
1744896834827478300,3.778478271484375,9.977472305297852,1.4225330352783203,0.19920247793197632
1744896834844289500,3.79528955078125,10.053443908691406,1.428515076637268,0.026919255033135414
1744896834861117700,3.81211767578125,10.100702285766602,1.3770694732666016,-0.13100704550743103
1744896834877915000,3.828914794921875,10.196415901184082,1.3106685876846313,-0.21236300468444824
1744896834894726400,3.845726318359375,10.268798828125,1.2442678213119507,-0.1417747437953949
1744896834911552000,3.862552001953125,10.250852584838867,1.2047861814498901,0.006580262444913387
1744896834928358100,3.879358154296875,10.065408706665039,1.217348575592041,0.1740778535604477
1744896834945169400,3.89616943359375,9.726225852966309,1.296311616897583,0.31405797600746155
1744896834961980000,3.91297998046875,9.268000602722168,1.4171491861343384,0.49710890650749207
1744896834978787600,3.92978759765625,8.785846710205078,1.4709876775741577,0.6993024349212646
1744896834995606500,3.9466064453125,8.399405479431152,1.5493526458740234,0.8584251403808594
1744896835012414000,3.9634140625,8.270791053771973,1.5858432054519653,0.997208833694458
1744896835029220600,3.980220703125,8.529814720153809,1.4817553758621216,1.0295119285583496
1744896835046040300,3.997040283203125,9.06700325012207,1.2598211765289307,1.0606186389923096
1744896835062829300,4.013829345703125,9.793225288391113,1.1264212131500244,0.9098708033561707
1744896835079644200,4.03064404296875,10.340582847595215,1.1730812788009644,0.7322037220001221
1744896835096455200,4.047455078125,10.439287185668945,1.2137593030929565,0.4217349886894226
1744896835113257500,4.064257568359375,10.494321823120117,1.2586246728897095,0.11126625537872314
1744896835130077000,4.081076904296875,10.589436531066895,1.2831511497497559,0.0011964113218709826
1744896835146888400,4.097888427734375,10.690533638000488,1.1216355562210083,-0.04307080805301666
1744896835163707100,4.11470703125,10.64806079864502,1.0977073907852173,-0.07597211748361588
1744896835180514000,4.13151416015625,10.435099601745605,1.29810631275177,-0.26081767678260803
1744896835197318000,4.14831787109375,10.020543098449707,1.5792629718780518,-0.4785645306110382
1744896835214134000,4.165134033203125,9.525827407836914,1.8442680835723877,-0.5617151260375977
1744896835230943700,4.18194384765625,8.992825508117676,2.0817556381225586,-0.722034215927124
1744896835247742000,4.198741943359375,8.755936622619629,2.3437697887420654,-0.8727820515632629
1744896835264552400,4.215552490234375,8.82532787322998,2.50289249420166,-0.9966106414794922
1744896835281376800,4.232376708984375,9.233902931213379,2.596810817718506,-1.1832507848739624
1744896835298187800,4.249187744140625,9.786046028137207,2.6871397495269775,-1.461416482925415
1744896835314994400,4.265994384765625,10.427921295166016,2.8354947566986084,-1.667797327041626
1744896835331814100,4.282814208984375,10.942378044128418,2.9485557079315186,-1.7455641031265259
1744896835348621000,4.29962109375,11.147562026977539,2.977867841720581,-1.669592022895813
1744896835365436000,4.316435791015625,10.977073669433594,2.933600664138794,-1.5499508380889893
1744896835382256600,4.333256591796875,10.405189514160156,2.9718856811523438,-1.280758261680603
1744896835399067400,4.3500673828125,9.7669038772583,2.98085880279541,-0.8967102766036987
1744896835415874800,4.366874755859375,9.296713829040527,2.9144580364227295,-0.5569294691085815
1744896835432694000,4.383694091796875,9.041878700256348,2.7254250049591064,-0.28953152894973755
1744896835449501400,4.40050146484375,8.949156761169434,2.4945175647735596,-0.15134602785110474
1744896835466311700,4.417311767578125,8.970691680908203,2.292922258377075,-0.008973085321485996
1744896835483104500,4.4341044921875,9.197412490844727,2.149951219558716,0.16151553392410278
1744896835499917600,4.45091748046875,9.384052276611328,2.1122641563415527,0.22791635990142822
1744896835516744700,4.46774462890625,9.639486312866211,2.2773690223693848,0.08434699475765228
1744896835533553400,4.484553466796875,9.80399227142334,2.3802602291107178,-0.27397820353507996
1744896835550353700,4.501353759765625,9.88415241241455,2.4197418689727783,-0.4169493317604065
1744896835567164400,4.518164306640625,9.985847473144531,2.362314224243164,-0.3170489966869354
1744896835583955200,4.534955078125,10.073782920837402,2.2133610248565674,-0.11306086927652359
1744896835600786200,4.5517861328125,10.089336395263672,2.108675003051758,-0.09451649338006973
1744896835617592600,4.568592529296875,10.007980346679688,2.032702922821045,-0.28534409403800964
1744896835634408700,4.58540869140625,9.946365356445312,1.9609181880950928,-0.357128769159317
1744896835651217700,4.6022177734375,10.019346237182617,1.817348837852478,-0.27696922421455383
1744896835668020200,4.619020263671875,10.211968421936035,1.6462619304656982,-0.24945175647735596
1744896835684842000,4.635842041015625,10.451848983764648,1.5134602785110474,-0.31764721870422363
1744896835701639700,4.6526396484375,10.298110008239746,1.5284154415130615,-0.5078766345977783
1744896835718464300,4.66946435546875,9.837491989135742,1.6558332443237305,-0.6783652305603027
1744896835735274800,4.686274658203125,9.367900848388672,1.934597134590149,-0.5324030518531799
1744896835752098800,4.703098876953125,9.123832702636719,2.056631088256836,-0.3164508044719696
1744896835768887300,4.71988720703125,9.087342262268066,2.0171494483947754,-0.1585244983434677
1744896835785706500,4.73670654296875,9.077771186828613,1.9932212829589844,-0.18305093050003052
1744896835802520300,4.753520263671875,8.974281311035156,2.18045973777771,-0.3966103494167328
1744896835819332600,4.77033251953125,8.656634330749512,2.366501569747925,-0.6478567123413086
1744896835836138000,4.787137939453125,8.2157564163208,2.531008243560791,-0.6364908218383789
1744896835852956000,4.803955810546875,7.871190071105957,2.6195425987243652,-0.5443671345710754
1744896835869780200,4.8207802734375,7.9244303703308105,2.6147570610046387,-0.47796630859375
1744896835886584800,4.837584716796875,8.359326362609863,2.5220351219177246,-0.5892325639724731
1744896835903402500,4.854402587890625,9.008976936340332,2.3880369663238525,-0.7728816866874695
1744896835920194300,4.8711943359375,9.452845573425293,2.3096721172332764,-0.9224331378936768
1744896835937016800,4.888016845703125,9.611370086669922,2.362314224243164,-0.6981059908866882
1744896835953833500,4.90483349609375,9.493523597717285,2.4263222217559814,-0.2871387302875519
1744896835970647600,4.9216474609375,9.370293617248535,2.4819552898406982,0.004785645287483931
1744896835987454700,4.938454833984375,9.29312515258789,2.571686029434204,0.0771685317158699
1744896836004265200,4.95526513671875,9.328418731689453,2.730808734893799,-0.18963119387626648
1744896836021060000,4.97206005859375,9.515657424926758,2.977867841720581,-0.5234299302101135
1744896836037857500,4.988857421875,9.822537422180176,3.153141975402832,-0.8530412912368774
1744896836054685400,5.005685546875,10.018150329589844,3.0837502479553223,-1.0498509407043457
1744896836071496000,5.022495849609375,10.163514137268066,3.001796007156372,-0.8500502705574036
1744896836088307500,5.039307373046875,10.169496536254883,2.943770170211792,-0.6113662123680115
1744896836105118200,5.0561181640625,9.960124015808105,2.9557342529296875,-0.4342973232269287
1744896836121929500,5.072929443359375,9.658628463745117,3.125624656677246,-0.34636107087135315
1744896836138753800,5.08975390625,9.356534957885742,3.2338998317718506,-0.3164508044719696
1744896836155529200,5.106529296875,9.041280746459961,3.242274761199951,-0.349352091550827
1744896836172362500,5.123362548828125,8.999405860900879,3.1555347442626953,-0.349352091550827
1744896836189174000,5.140174072265625,8.9910306930542,3.050250768661499,-0.25423741340637207
1744896836205984500,5.156984619140625,9.10409164428711,2.820539712905884,-0.09810572862625122
1744896836222795500,5.17379541015625,9.31585693359375,2.6632115840911865,0.04426721855998039
1744896836239609900,5.19060986328125,9.561718940734863,2.4059832096099854,0.04247260093688965
1744896836256415200,5.207415283203125,9.739386558532715,2.306680917739868,0.012562318705022335
1744896836273225500,5.2242255859375,9.697511672973633,2.1164517402648926,-0.1788634955883026
1744896836290040000,5.2410400390625,9.462417602539062,2.163111686706543,-0.2787638306617737
1744896836306851000,5.25785107421875,9.366106033325195,2.2205393314361572,-0.3403790295124054
1744896836323659000,5.274658935546875,9.278767585754395,2.282752752304077,-0.5306084156036377
1744896836340464000,5.291464111328125,9.139386177062988,2.287538528442383,-0.7070791125297546
1744896836357284000,5.3082841796875,9.043074607849121,2.373081922531128,-0.6777670383453369
1744896836374112800,5.32511279296875,8.861220359802246,2.434098720550537,-0.5910272002220154
1744896836390925600,5.341925537109375,8.751151084899902,2.4717857837677,-0.5665007829666138
1744896836407712800,5.358712646484375,8.82233715057373,2.5298118591308594,-0.6287141442298889
1744896836424543000,5.37554296875,9.002995491027832,2.5124638080596924,-0.8344969153404236
1744896836441337000,5.392337158203125,9.121439933776855,2.475973129272461,-1.0307083129882812
1744896836458150700,5.409150634765625,9.260223388671875,2.4053850173950195,-1.074377417564392
1744896836474975200,5.425975341796875,9.356534957885742,2.386242389678955,-0.9984052777290344
1744896836491769900,5.442769775390625,9.476176261901855,2.324627161026001,-0.989432156085968
1744896836508597500,5.459597412109375,9.625128746032715,2.286940336227417,-0.966102123260498
1744896836525391600,5.4763916015625,9.687342643737793,2.2205393314361572,-0.9954141974449158
1744896836542205200,5.493205078125,9.65384292602539,2.201396942138672,-1.0193424224853516
1744896836559016700,5.5100166015625,9.477372169494629,2.2241287231445312,-0.9421738982200623
1744896836575828000,5.526827880859375,9.238688468933105,2.32761812210083,-0.8267202377319336
1744896836592639000,5.543638916015625,9.027522087097168,2.4741785526275635,-0.7441678643226624
1744896836609449700,5.56044970703125,8.869595527648926,2.5351955890655518,-0.719641387462616
1744896836626278700,5.577278564453125,8.922237396240234,2.506481647491455,-0.6813562512397766
1744896836643068400,5.594068359375,9.047860145568848,2.3922245502471924,-0.6634100675582886
1744896836659883300,5.61088330078125,9.235098838806152,2.245065927505493,-0.6358926296234131
1744896836676693800,5.62769384765625,9.389435768127441,2.1308085918426514,-0.5886343717575073
1744896836693499600,5.644499755859375,9.480961799621582,2.0267207622528076,-0.646660327911377
1744896836710321700,5.66132177734375,9.5862455368042,1.9178473949432373,-0.7621139883995056
1744896836727127300,5.678127197265625,9.625128746032715,1.7796618938446045,-0.9158528447151184
1744896836743951400,5.694951416015625,9.640084266662598,1.6606189012527466,-1.007378339767456
1744896836760766500,5.711766357421875,9.564111709594727,1.551147222518921,-1.1174482107162476
1744896836777571000,5.728571044921875,9.564111709594727,1.5134602785110474,-1.2179467678070068
1744896836794371600,5.74537158203125,9.516255378723145,1.451246976852417,-1.3280165195465088
1744896836811169000,5.7621689453125,9.482755661010742,1.4327025413513184,-1.3992030620574951
1744896836827982800,5.77898291015625,9.454042434692383,1.3992030620574951,-1.456630825996399
1744896836844804600,5.7958046875,9.45464038848877,1.3465609550476074,-1.4811571836471558
1744896836861600500,5.8126005859375,9.464810371398926,1.2562319040298462,-1.5098711252212524
1744896836878434300,5.829434326171875,9.483952522277832,1.2131611108779907,-1.5242279767990112
1744896836895249400,5.84624951171875,9.598808288574219,1.194616675376892,-1.5152549743652344
1744896836912063000,5.86306298828125,9.81356430053711,1.1437692642211914,-1.592423439025879
1744896836928876300,5.879876220703125,10.028918266296387,1.0971091985702515,-1.6169499158859253
1744896836945684200,5.896684326171875,10.210772514343262,0.9744769930839539,-1.7473586797714233
1744896836962492000,5.913491943359375,10.387243270874023,0.9990034699440002,-1.7377874851226807
1744896836979312600,5.930312744140625,10.53499984741211,1.0432707071304321,-1.7336000204086304
1744896836996115700,5.94711572265625,10.654043197631836,1.072582721710205,-1.7336000204086304
1744896837012911600,5.96391162109375,10.706685066223145,1.134796142578125,-1.6857435703277588
1744896837029726200,5.980726318359375,10.624731063842773,1.2197413444519043,-1.5750755071640015
1744896837046537500,5.997537353515625,10.509875297546387,1.3621143102645874,-1.454836130142212
1744896837063345400,6.014345458984375,10.423135757446289,1.4709876775741577,-1.3537393808364868
1744896837080162300,6.031162353515625,10.418350219726562,1.5230315923690796,-1.3010972738265991
1744896837096970500,6.047970458984375,10.360921859741211,1.5224334001541138,-1.2436695098876953
1744896837113794300,6.064794189453125,10.237691879272461,1.5308083295822144,-1.1479566097259521
1744896837130593800,6.08159375,10.141380310058594,1.583450436592102,-1.1569297313690186
1744896837147403500,6.098403564453125,10.136594772338867,1.6259230375289917,-1.1377872228622437
1744896837164214500,6.115214599609375,10.203594207763672,1.6169499158859253,-1.1234302520751953
1744896837181026000,6.132026123046875,10.194023132324219,1.550549030303955,-1.2382856607437134
1744896837197825000,6.148824951171875,10.117452621459961,1.5547364950180054,-1.2143574953079224
1744896837214644500,6.16564453125,10.0073823928833,1.5499508380889893,-1.3381860256195068
1744896837231478800,6.182478759765625,9.934999465942383,1.6067804098129272,-1.2801600694656372
1744896837248268800,6.199268798828125,9.76391315460205,1.576271891593933,-1.1940184831619263
1744896837265096700,6.2160966796875,9.65085220336914,1.5224334001541138,-1.0510473251342773
1744896837281888800,6.232888671875,9.632308006286621,1.4602199792861938,-0.9936196208000183
1744896837298703000,6.249703125,9.704689979553223,1.378864049911499,-0.9750752449035645
1744896837315511600,6.266511474609375,9.900901794433594,1.3561322689056396,-0.9469595551490784
1744896837332328400,6.283328369140625,9.919445991516113,1.3710874319076538,-1.0426725149154663
1744896837349136100,6.30013623046875,9.875179290771484,1.43389892578125,-1.1808580160140991
1744896837365947600,6.31694775390625,9.611370086669922,1.5092729330062866,-1.2705888748168945
1744896837382783200,6.333783203125,9.217751502990723,1.7790635824203491,-1.2251251935958862
1744896837399583500,6.35058349609375,8.704490661621094,2.0344974994659424,-1.1461620330810547
1744896837416387300,6.36738720703125,8.316853523254395,2.341377019882202,-0.857228696346283
1744896837433213000,6.384212890625,8.216354370117188,2.516651153564453,-0.5557330846786499
1744896837450016300,6.401016357421875,8.279166221618652,2.5393829345703125,-0.32123643159866333
1744896837466828000,6.417828125,8.446663856506348,2.5016961097717285,-0.2745763957500458
1744896837483623700,6.434623779296875,8.49033260345459,2.520838737487793,-0.19322042167186737
1744896837500436500,6.4514365234375,8.529216766357422,2.520240545272827,0.016749758273363113
1744896837517243600,6.46824365234375,8.582456588745117,2.6195425987243652,0.26560330390930176
1744896837534045200,6.485045166015625,8.553144454956055,2.724228620529175,0.31345975399017334
1744896837550870000,6.5018701171875,8.455636978149414,2.953341245651245,0.33858439326286316
1744896837567672800,6.5186728515625,8.376075744628906,3.3104701042175293,0.47916272282600403
1744896837584499000,6.5354990234375,8.448458671569824,3.7130625247955322,0.4043870270252228
1744896837601320000,6.55231982421875,8.909076690673828,3.823132276535034,0.0023928226437419653
1744896837618103800,6.569103759765625,9.5264253616333,3.881756544113159,-0.5575276613235474
1744896837634927400,6.58592724609375,10.091729164123535,3.9254255294799805,-0.97926265001297
1744896837651732200,6.602732177734375,10.49791145324707,3.823132276535034,-1.1383854150772095
1744896837668547800,6.6195478515625,10.603195190429688,3.8285162448883057,-1.1341979503631592
1744896837685357300,6.636357421875,10.408180236816406,3.7842490673065186,-1.0666006803512573
1744896837702168600,6.65316845703125,10.030712127685547,3.90987229347229,-0.8554341197013855
1744896837718976800,6.669976806640625,9.714262008666992,4.108476638793945,-0.7818548083305359
1744896837735804700,6.6868046875,9.436694145202637,4.164109706878662,-0.7663014531135559
1744896837752611600,6.703611572265625,9.177671432495117,4.2586259841918945,-0.8081758618354797
1744896837769414400,6.720414306640625,9.056235313415527,4.421338081359863,-0.9361918568611145
1744896837786220300,6.73722021484375,8.977272033691406,4.631906509399414,-1.0163514614105225
1744896837803035000,6.754034912109375,8.867202758789062,4.749752998352051,-0.8530412912368774
1744896837819845600,6.770845703125,8.73918628692627,4.77667236328125,-0.6041877269744873
1744896837836657200,6.7876572265625,8.674580574035645,4.764708042144775,-0.24107688665390015
1744896837853464800,6.80446484375,8.652446746826172,4.687539577484131,-0.059820566326379776
1744896837870282200,6.8212822265625,8.734400749206543,4.639084815979004,0.07776673883199692
1744896837887094500,6.838094482421875,8.910871505737305,4.664209365844727,0.09690931439399719
1744896837903895800,6.854895751953125,9.239286422729492,4.680959224700928,-0.09032905846834183
1744896837920710400,6.87171044921875,9.903892517089844,4.537389755249023,-0.24586252868175507
1744896837937537800,6.888537841796875,10.4883394241333,3.8470606803894043,-0.2021935135126114
1744896837954343700,6.90534375,10.844870567321777,3.025724172592163,-0.05383851006627083
1744896837971163400,6.922163330078125,10.613365173339844,2.3443679809570312,0.13938191533088684
1744896837987941600,6.938941650390625,9.943374633789062,2.276172637939453,0.6616154313087463
1744896838004767700,6.955767822265625,9.097511291503906,2.5046870708465576,0.8745766878128052
1744896838021565400,6.9725654296875,8.245068550109863,2.7433712482452393,0.8973084688186646
1744896838038389800,6.9893896484375,7.559525012969971,2.9557342529296875,0.7519445419311523
1744896838055200800,7.00620068359375,7.207181930541992,3.184846878051758,0.4384847581386566
1744896838072012000,7.023011962890625,7.308278560638428,3.4025938510894775,0.05742774158716202
1744896838088808000,7.039807861328125,7.792226791381836,3.5742788314819336,-0.2967100143432617
1744896838105647400,7.0566474609375,8.545368194580078,3.655634880065918,-0.4701896607875824
1744896838122455800,7.073455810546875,9.305088996887207,3.593421459197998,-0.49172505736351013
1744896838139253000,7.0902529296875,9.884750366210938,3.451646566390991,-0.2835494875907898
1744896838156076300,7.107076171875,10.164112091064453,3.342175006866455,-0.07477571070194244
1744896838172878300,7.12387841796875,10.040882110595703,3.2554352283477783,0.025722842663526535
1744896838189689000,7.140689208984375,9.614959716796875,3.391227960586548,0.0364905446767807
1744896838206500600,7.15750048828125,9.006584167480469,3.565305709838867,-0.06580262631177902
1744896838223312000,7.174311767578125,8.368897438049316,3.7495529651641846,-0.23988047242164612
1744896838240132400,7.19113232421875,7.869993686676025,3.90987229347229,-0.39541393518447876
1744896838256930600,7.2079306640625,7.654041290283203,4.037290096282959,-0.33738797903060913
1744896838273754600,7.224754638671875,7.64865779876709,4.1760735511779785,-0.2554338276386261
1744896838290554600,7.2415546875,7.899903774261475,4.3208394050598145,-0.29371899366378784
1744896838307368400,7.258368408203125,8.319844245910645,4.385445594787598,-0.2799602448940277
1744896838324178000,7.275177978515625,8.730213165283203,4.439882278442383,-0.2476571500301361
1744896838340989200,7.2919892578125,9.140582084655762,4.470989227294922,-0.20099709928035736
1744896838357779200,7.308779296875,9.613762855529785,4.444668292999268,-0.19262222945690155
1744896838374611500,7.325611572265625,9.995418548583984,4.427918434143066,-0.2847459018230438
1744896838391441700,7.342441650390625,10.01994514465332,4.29451847076416,-0.3188436031341553
1744896838408262700,7.3592626953125,9.611370086669922,4.105485439300537,-0.27038896083831787
1744896838425057500,7.3760576171875,8.893523216247559,3.875774383544922,-0.13579268753528595
1744896838441868800,7.392868896484375,8.183453559875488,3.7567315101623535,-0.014955141581594944
1744896838458665500,7.40966552734375,7.464410305023193,3.55214524269104,-0.03290131315588951
1744896838475474400,7.426474365234375,7.360920429229736,3.568894863128662,0.28235307335853577
1744896838492288500,7.44328857421875,7.366304397583008,3.421138286590576,0.1908276081085205
1744896838509099800,7.460099853515625,7.906484127044678,3.243471145629883,-0.02632104977965355
1744896838525910800,7.476910888671875,8.461020469665527,3.108874797821045,-0.20039889216423035
1744896838542722000,7.49372216796875,8.895915985107422,3.005983352661133,-0.2350948303937912
1744896838559531500,7.510531494140625,9.165108680725098,2.939582586288452,-0.05024927482008934
1744896838576362500,7.527362548828125,9.419346809387207,2.9826533794403076,0.22193430364131927
1744896838593169200,7.544169189453125,9.658628463745117,2.9790642261505127,0.32602208852767944
1744896838609959700,7.560959716796875,9.824930191040039,2.994617462158203,0.25423741340637207
1744896838626780200,7.5777802734375,10.023533821105957,3.139383316040039,0.1585244983434677
1744896838643585300,7.594585205078125,10.116853713989258,3.308077335357666,-0.012562318705022335
1744896838660402400,7.61140234375,10.062417030334473,3.452244758605957,-0.18364913761615753
1744896838677211000,7.6282109375,9.797411918640137,3.55214524269104,-0.3978067636489868
1744896838694021000,7.645021240234375,9.471389770507812,3.617947816848755,-0.5539384484291077
1744896838710850000,7.66185009765625,9.093324661254883,3.6741790771484375,-0.6436693072319031
1744896838727668200,7.678668212890625,8.677571296691895,3.6813576221466064,-0.656829833984375
1744896838744451800,7.695451904296875,8.382058143615723,3.631706476211548,-0.6227321028709412
1744896838761279200,7.712279296875,8.225327491760254,3.559323787689209,-0.6131607890129089
1744896838778071300,7.7290712890625,8.317451477050781,3.4540395736694336,-0.5563312768936157
1744896838794888000,7.745887939453125,8.595617294311523,3.3547372817993164,-0.5000999569892883
1744896838811699500,7.762699462890625,9.045467376708984,3.228515863418579,-0.49710890650749207
1744896838828510000,7.779510009765625,9.581459999084473,3.064607620239258,-0.600000262260437
1744896838845308000,7.796307861328125,10.074381828308105,2.8624141216278076,-0.7214360237121582
1744896838862132200,7.81313232421875,10.41476058959961,2.7349963188171387,-0.7513462901115417
1744896838878947000,7.829947021484375,10.544570922851562,2.630310297012329,-0.6999006271362305
1744896838895753500,7.84675341796875,10.507482528686523,2.5669004917144775,-0.5569294691085815
1744896838912579300,7.863579345703125,10.26461124420166,2.5746772289276123,-0.4701896607875824
1744896838929390300,7.880390380859375,9.987641334533691,2.6015963554382324,-0.40737804770469666
1744896838946201600,7.89720166015625,9.595218658447266,2.6285157203674316,-0.49651068449020386
1744896838962995000,7.913994873046875,9.226723670959473,2.6937201023101807,-0.5623133182525635
1744896838979809800,7.930809814453125,8.996415138244629,2.7840490341186523,-0.6376872062683105
1744896838996620800,7.947620849609375,8.696115493774414,2.796013355255127,-0.5365904569625854
1744896839013429500,7.964429443359375,8.515457153320312,2.812762975692749,-0.2638086974620819
1744896839030245000,7.9812451171875,8.516654014587402,2.7930221557617188,-0.0729810893535614
1744896839047054000,7.99805419921875,8.784649848937988,2.7942185401916504,-0.04007977992296219
1744896839063878700,8.014878662109375,9.209376335144043,2.767897605895996,-0.046061836183071136
1744896839080689400,8.031689453125,9.57787036895752,2.754737138748169,0.08673982322216034
1744896839097493500,8.048493408203125,9.864411354064941,2.8797619342803955,0.24885354936122894
1744896839114298600,8.065298583984376,10.069596290588379,2.8666014671325684,0.25782662630081177
1744896839131109400,8.082109375,10.265807151794434,2.8486554622650146,0.28594231605529785
1744896839147907800,8.098907958984375,10.42492961883545,2.6865415573120117,0.3517449200153351
1744896839164721400,8.115721435546876,10.565508842468262,2.420340061187744,0.25423741340637207
1744896839181539300,8.132539306640625,10.648658752441406,2.228914260864258,0.3008974492549896
1744896839198401300,8.1494013671875,10.591829299926758,2.17627215385437,0.2961117923259735
1744896839215178500,8.166178466796875,10.39083194732666,2.203789710998535,0.24945175647735596
1744896839231989500,8.182989501953125,10.103693962097168,2.283949136734009,0.21714866161346436
1744896839248800800,8.19980078125,9.912267684936523,2.3018953800201416,0.18903298676013947
1744896839265608000,8.21660791015625,9.81655502319336,2.310868501663208,0.1698904037475586
1744896839282410000,8.233409912109375,9.839884757995605,2.3401806354522705,0.07956135272979736
1744896839299220000,8.250219970703125,9.833304405212402,2.4029922485351562,-0.08255238085985184
1744896839316033800,8.26703369140625,9.7938232421875,2.5232315063476562,-0.1824527233839035
1744896839332842500,8.283842529296875,9.616155624389648,2.565704107284546,-0.3487538993358612
1744896839349653800,8.30065380859375,9.43310546875,2.599203586578369,-0.534795880317688
1744896839366461200,8.317461181640626,9.32722282409668,2.661417007446289,-0.6628118753433228
1744896839383295700,8.334295654296875,9.30748176574707,2.671586513519287,-0.7058826684951782
1744896839400100400,8.351100341796876,9.253643035888672,2.7906293869018555,-0.7435696125030518
1744896839416910800,8.367910888671876,9.230313301086426,2.7284159660339355,-0.7148557901382446
1744896839433720000,8.384719970703125,9.121439933776855,2.703291416168213,-0.6143572330474854
1744896839450520300,8.401520263671875,8.978468894958496,2.6973092555999756,-0.5521438121795654
1744896839467326500,8.418326416015624,8.863015174865723,2.8827531337738037,-0.46002015471458435
1744896839484135700,8.4351357421875,8.770891189575195,3.0586254596710205,-0.33020952343940735
1744896839500953000,8.451953125,8.765507698059082,3.1824541091918945,-0.20039889216423035
1744896839517760000,8.468760009765624,8.904291152954102,3.249453067779541,-0.08614161610603333
1744896839534578400,8.485578369140624,9.123832702636719,3.259622573852539,-0.019740786403417587
1744896839551404500,8.502404541015625,9.382855415344238,3.2129626274108887,0.07477571070194244
1744896839568229600,8.519229736328125,9.512067794799805,3.232703447341919,0.1459621787071228
1744896839585004000,8.536004150390625,9.521040916442871,3.2656047344207764,0.17946170270442963
1744896839601820000,8.55281982421875,9.44028377532959,3.2931220531463623,0.3236292600631714
1744896839618626800,8.569626708984375,9.407979965209961,3.259622573852539,0.380458801984787
1744896839635445800,8.58644580078125,9.470193862915039,3.2213375568389893,0.380458801984787
1744896839652249900,8.603249755859375,9.485149383544922,3.2069804668426514,0.4899304509162903
1744896839669067300,8.6200673828125,9.409774780273438,3.200998544692993,0.6430711150169373
1744896839685862000,8.63686181640625,9.323633193969727,3.228515863418579,0.7387840151786804
1744896839702700000,8.653699951171875,9.419944763183594,3.181257724761963,0.7525427341461182
1744896839719509500,8.670509521484375,9.578469276428223,3.0388846397399902,0.6753742098808289
1744896839736323600,8.687323486328125,9.602995872497559,2.8725836277008057,0.5072783827781677
1744896839753131000,8.704131103515625,9.445667266845703,2.843271493911743,0.4504488706588745
1744896839769947000,8.72094677734375,9.20159912109375,2.8755745887756348,0.43190449476242065
1744896839786738200,8.73773828125,9.019146919250488,2.92283296585083,0.31824541091918945
1744896839803535600,8.75453564453125,8.912666320800781,2.923431158065796,0.0891326442360878
1744896839820354800,8.771354736328124,8.800801277160645,3.014956474304199,-0.22552353143692017
1744896839837174800,8.7881748046875,8.687142372131348,3.2404799461364746,-0.5108676552772522
1744896839853983000,8.80498291015625,8.565707206726074,3.43190598487854,-0.5665007829666138
1744896839870800400,8.82180029296875,8.584251403808594,3.5270206928253174,-0.5377869009971619
1744896839887610000,8.838610107421875,8.890532493591309,3.4570305347442627,-0.5054838061332703
1744896839904432400,8.855432373046876,9.268598556518555,3.321237802505493,-0.6550351977348328
1744896839921257700,8.8722578125,9.545567512512207,3.1992039680480957,-0.857228696346283
1744896839938025000,8.88902490234375,9.612566947937012,3.0999016761779785,-1.0247262716293335
1744896839954853000,8.90585302734375,9.43609619140625,3.0179476737976074,-1.1108678579330444
1744896839971663400,8.922663330078125,9.121439933776855,2.9066812992095947,-1.1772687435150146
1744896839988475000,8.939474853515625,8.639286041259766,2.857030153274536,-1.2765709161758423
1744896840005285600,8.95628564453125,8.223533630371094,2.916252613067627,-1.1700903177261353
1744896840022094300,8.97309423828125,7.971688747406006,2.899502754211426,-0.9493523836135864
1744896840038924800,8.9899248046875,8.055437088012695,2.826521635055542,-0.6442674994468689
1744896840055729000,9.00672900390625,8.425128936767578,2.674577474594116,-0.4504488706588745
1744896840072543700,9.023543701171874,8.903693199157715,2.5674986839294434,-0.4905286431312561
1744896840089338400,9.04033837890625,9.22851848602295,2.4981069564819336,-0.6251249313354492
1744896840106152200,9.057152099609375,9.376275062561035,2.404188632965088,-0.7692924737930298
1744896840122950400,9.073950439453125,9.654440879821777,2.2953150272369385,-0.7561319470405579
1744896840139767800,9.090767822265626,9.967302322387695,2.100898265838623,-0.6813562512397766
1744896840156576300,9.107576171875,10.126425743103027,1.9106688499450684,-0.7304090857505798
1744896840173394400,9.12439453125,10.127023696899414,1.805384635925293,-0.7214360237121582
1744896840190227000,9.14122705078125,9.89850902557373,1.7419748306274414,-0.706480860710144
1744896840207032600,9.158032470703125,9.593423843383789,1.7922241687774658,-0.5575276613235474
1744896840223854000,9.17485400390625,9.42173957824707,1.8526428937911987,-0.4181457459926605
1744896840240658400,9.191658447265626,9.441479682922363,1.8041882514953613,-0.29431718587875366
1744896840257438200,9.208438232421875,9.54796028137207,1.7186448574066162,-0.19980068504810333
1744896840274274000,9.225274169921875,9.672985076904297,1.689931035041809,-0.12861421704292297
1744896840291074600,9.242074462890624,9.796216011047363,1.7623138427734375,-0.1333998590707779
1744896840307873800,9.258873779296875,10.009775161743164,1.9070796966552734,-0.15254244208335876
1744896840324696600,9.275696533203124,10.39501953125,2.1194427013397217,-0.07118647545576096
1744896840341507600,9.292507568359374,10.52662467956543,2.283350944519043,-0.22851456701755524
1744896840358327600,9.30932763671875,10.879566192626953,2.365903377532959,-0.08075776696205139
1744896840375129600,9.326129638671874,10.768898010253906,2.4610180854797363,-0.04666004329919815
1744896840391924200,9.34292431640625,10.612168312072754,2.392822742462158,0.0011964113218709826
1744896840408750800,9.359750732421874,10.455438613891602,2.3533411026000977,0.09690931439399719
1744896840425560000,9.37656005859375,10.080363273620605,2.1547367572784424,0.13040883839130402
1744896840442374000,9.393373779296875,9.846465110778809,2.1104695796966553,0.07836493849754333
1744896840459184600,9.4101845703125,9.645467758178711,2.0865414142608643,-0.07896314561367035
1744896840475996400,9.426996337890625,9.505488395690918,2.1062822341918945,-0.40797626972198486
1744896840492807700,9.4438076171875,9.546764373779297,2.1655044555664062,-0.617946445941925
1744896840509618400,9.460618408203125,9.642477035522461,2.0757737159729004,-0.7716853022575378
1744896840526430200,9.47743017578125,9.743574142456055,1.9423737525939941,-0.7722834944725037
1744896840543254300,9.494254150390624,9.792028427124023,1.8658034801483154,-0.7585247755050659
1744896840560050000,9.5110498046875,9.658628463745117,1.8317056894302368,-0.7722834944725037
1744896840576859400,9.527859375,9.452247619628906,1.9076778888702393,-0.8195417523384094
1744896840593671000,9.5446708984375,9.223134994506836,1.9728822708129883,-0.7800601720809937
1744896840610488300,9.56148828125,9.074779510498047,2.043470621109009,-0.7124629616737366
1744896840627296500,9.578296630859375,9.035896301269531,2.1098713874816895,-0.6598208546638489
1744896840644107000,9.59510693359375,8.926424980163574,2.11824631690979,-0.5688936114311218
1744896840660918500,9.61191845703125,8.96949577331543,2.1373889446258545,-0.5018945336341858
1744896840677764600,9.6287646484375,9.012566566467285,2.15653133392334,-0.4540380835533142
1744896840694555100,9.64555517578125,8.885746955871582,2.1589243412017822,-0.09571290761232376
1744896840711345400,9.662345458984374,8.7445707321167,2.193620204925537,0.47796630859375
1744896840728161300,9.679161376953125,8.952746391296387,2.1541385650634766,0.9068797826766968
1744896840744971500,9.695971435546875,9.160323143005371,1.906481385231018,0.9625129103660583
1744896840761766400,9.712766357421875,9.577272415161133,1.755733609199524,0.989432156085968
1744896840778584000,9.729583984375,9.77109146118164,1.5882359743118286,1.1886346340179443
1744896840795407000,9.746406982421876,9.559925079345703,1.46500563621521,1.7001005411148071
1744896840812219000,9.763218994140624,9.112466812133789,1.6175481081008911,2.2366909980773926
1744896840829030000,9.78002978515625,8.647661209106445,1.9004993438720703,2.5160529613494873
1744896840845840600,9.796840576171874,8.462217330932617,2.5010979175567627,2.782254457473755
1744896840862651600,9.813651611328124,8.536395072937012,2.939582586288452,2.1918256282806396
1744896840879463200,9.830463134765624,8.778069496154785,3.2267212867736816,1.4231312274932861
1744896840896291800,9.847291748046874,9.262018203735352,3.36969256401062,1.0402796268463135
1744896840913081600,9.86408154296875,9.7064847946167,3.3056845664978027,1.0247262716293335
1744896840929896400,9.880896484375,10.130613327026367,3.0957143306732178,1.3854442834854126
1744896840946707700,9.897707763671875,10.583454132080078,2.861815929412842,1.8179470300674438
1744896840963519200,9.914519287109375,11.026724815368652,2.633301258087158,2.1020946502685547
1744896840980325400,9.931325439453126,11.216954231262207,2.2893331050872803,2.286342144012451
1744896840997144600,9.94814453125,11.210373878479004,2.0542383193969727,2.4191436767578125
1744896841013965600,9.964965576171876,10.982458114624023,1.975873351097107,2.5292134284973145
1744896841030781200,9.98178125,10.60977554321289,2.0069799423217773,2.606980323791504
1744896841047587800,9.998587890625,10.245468139648438,2.1242282390594482,2.5704896450042725
1744896841064382000,10.0153818359375,9.957133293151855,2.276770830154419,2.4329023361206055
1744896841081192700,10.032192626953124,9.801599502563477,2.4394826889038086,2.166700839996338
1744896841097999400,10.048999267578125,9.726823806762695,2.626721143722534,1.9387845993041992
1744896841114818300,10.065818359375,9.695717811584473,2.74755859375,1.6767704486846924
1744896841131629600,10.082629638671875,9.70349407196045,2.8253252506256104,1.4524433612823486
1744896841148440800,10.09944091796875,9.778867721557617,2.8929226398468018,1.3142578601837158
1744896841165268700,10.116268798828125,10.073782920837402,2.9383862018585205,1.1892328262329102
1744896841182074600,10.13307470703125,10.359725952148438,2.8600213527679443,1.0019944906234741
1744896841198889500,10.149889404296875,10.475179672241211,2.7553353309631348,0.9583254456520081
1744896841215701800,10.16670166015625,10.332208633422852,2.7451658248901367,0.9200403094291687
1744896841232508200,10.183508056640624,10.131211280822754,2.815753936767578,0.9643075466156006
1744896841249343200,10.20034326171875,9.882357597351074,2.857628345489502,0.9457631707191467
1744896841266132500,10.217132568359375,9.551549911499023,2.984447956085205,0.966102123260498
1744896841282926600,10.233926513671875,9.235696792602539,3.059821844100952,0.9248259663581848
1744896841299728000,10.250727783203125,9.034700393676758,3.077768087387085,0.8919246196746826
1744896841316548600,10.267548583984375,9.145966529846191,2.882154941558838,0.8620143532752991
1744896841333365800,10.28436572265625,9.401998519897461,2.582453727722168,0.8793623447418213
1744896841350173700,10.301173583984376,9.486345291137695,2.386242389678955,1.0689935684204102
1744896841366985500,10.3179853515625,9.248259544372559,2.4263222217559814,1.3752747774124146
1744896841383809500,10.3348095703125,8.861818313598633,2.575275421142578,1.6827524900436401
1744896841400607500,10.351607421875,8.517850875854492,2.7397818565368652,1.8801604509353638
1744896841417415200,10.368415283203126,8.106285095214844,2.8426733016967773,1.9010975360870361
1744896841434233000,10.385233154296875,7.950751304626465,3.0717861652374268,1.8448662757873535
1744896841451040000,10.4020400390625,7.823931694030762,3.248854875564575,1.6265212297439575
1744896841467839000,10.4188388671875,7.835297584533691,3.455834150314331,1.3645070791244507
1744896841484662500,10.43566259765625,7.960920810699463,3.606581926345825,1.0307083129882812
1744896841501491200,10.4524912109375,8.183453559875488,3.690330743789673,0.7627122402191162
1744896841518304000,10.469303955078125,8.350353240966797,3.6340994834899902,0.6813562512397766
1744896841535105300,10.486105224609375,8.495118141174316,3.538984775543213,0.8045865893363953
1744896841551917300,10.502917236328125,8.678169250488281,3.4911282062530518,1.0618150234222412
1744896841568718300,10.51971826171875,8.903693199157715,3.472583770751953,1.1754741668701172
1744896841585512700,10.5365126953125,9.123832702636719,3.4402806758880615,1.184447169303894
1744896841602340400,10.55334033203125,9.19561767578125,3.4498519897460938,1.2418749332427979
1744896841619138600,10.570138671875,9.113663673400879,3.5258240699768066,1.3040883541107178
1744896841635959600,10.58695947265625,8.998209953308105,3.6257245540618896,1.26699960231781
1744896841652780000,10.603780029296875,8.85344409942627,3.744767427444458,1.1389836072921753
1744896841669598500,10.620598388671874,8.827720642089844,3.8697924613952637,1.0247262716293335
1744896841686393000,10.63739306640625,8.8648099899292,3.9278182983398438,0.9343972206115723
1744896841703221000,10.654220947265625,8.916853904724121,3.971487283706665,0.8721838593482971
1744896841720029000,10.67102880859375,8.930013656616211,4.000799655914307,0.7908278703689575
1744896841736846000,10.68784619140625,8.881559371948242,4.067798614501953,0.6813562512397766
1744896841753652500,10.704652587890624,8.81814956665039,4.115654945373535,0.5479564070701599
1744896841770469000,10.72146923828125,8.736793518066406,4.106681823730469,0.4384847581386566
1744896841787256600,10.738256591796874,8.684151649475098,4.053441524505615,0.39062830805778503
1744896841804080000,10.755080078125,8.7176513671875,4.001397609710693,0.33798620104789734
1744896841820881400,10.77188134765625,8.827720642089844,3.9595232009887695,0.29431718587875366
1744896841837691000,10.78869091796875,8.961718559265137,3.912863254547119,0.2315055876970291
1744896841854503400,10.80550341796875,9.032905578613281,3.9038901329040527,0.18843477964401245
1744896841871319800,10.82231982421875,9.008976936340332,3.960719585418701,0.21296121180057526
1744896841888118000,10.839117919921875,8.940781593322754,4.0797624588012695,0.20398813486099243
1744896841904940500,10.8559404296875,8.896514892578125,4.208974838256836,0.17587246000766754
1744896841921739500,10.872739501953125,8.876175880432129,4.309473514556885,0.15732808411121368
1744896841938561300,10.889561279296874,8.851649284362793,4.41475772857666,0.11006984114646912
1744896841955373600,10.90637353515625,8.83071231842041,4.553541660308838,0.053240302950143814
1744896841972184800,10.923184814453125,8.796015739440918,4.66361141204834,0.0011964113218709826
1744896841988996000,10.93999609375,8.771489143371582,4.711467742919922,-0.0364905446767807
1744896842005820400,10.9568203125,8.74337387084961,4.682754039764404,-0.012562318705022335
1744896842022615800,10.97361572265625,8.681758880615234,4.6199421882629395,0.020937198773026466
1744896842039443500,10.990443359375,8.544171333312988,4.546961307525635,0.08733802288770676
1744896842056233500,11.0072333984375,8.402397155761719,4.464408874511719,0.19262222945690155
1744896842073055000,11.024054931640626,8.294121742248535,4.343571186065674,0.2877369225025177
1744896842089862400,11.0408623046875,8.267800331115723,4.18564510345459,0.3732803463935852
1744896842106673700,11.057673583984375,8.3359956741333,4.066003799438477,0.4492524564266205
1744896842123484200,11.074484130859375,8.46580696105957,3.975674867630005,0.4863412082195282
1744896842140296200,11.091296142578125,8.628518104553223,3.947559118270874,0.5670989751815796
1744896842157103400,11.108103271484374,8.805587768554688,3.94815731048584,0.6478567123413086
1744896842173932000,11.12493212890625,9.044271469116211,3.9828531742095947,0.6807580590248108
1744896842190746600,11.14174658203125,9.244071960449219,4.041477680206299,0.6424728631973267
1744896842207553500,11.158553466796874,9.348159790039062,4.12343168258667,0.5946164131164551
1744896842224390000,11.175389892578124,9.332606315612793,4.228715896606445,0.5473581552505493
1744896842241176000,11.192176025390625,9.255437850952148,4.31007194519043,0.48095735907554626
1744896842257971200,11.20897119140625,9.130413055419922,4.357329845428467,0.45284169912338257
1744896842274792400,11.22579248046875,8.982057571411133,4.366302967071533,0.41994038224220276
1744896842291599400,11.242599365234375,8.895915985107422,4.4135613441467285,0.4013960063457489
1744896842308407300,11.2594072265625,8.85763168334961,4.3896331787109375,0.3678964674472809
1744896842325217800,11.2762177734375,8.877371788024902,4.308277130126953,0.3577269911766052
1744896842342029000,11.293029052734376,8.916853904724121,4.198805332183838,0.3858426511287689
1744896842358832400,11.309832275390624,8.93240737915039,4.098307132720947,0.4091726839542389
1744896842375657700,11.32665771484375,8.970691680908203,4.031308174133301,0.3900300860404968
1744896842392459300,11.343459228515625,8.94257640838623,4.0217366218566895,0.39481574296951294
1744896842409276700,11.360276611328125,8.875576972961426,4.059423446655273,0.4426721930503845
1744896842426077200,11.3770771484375,8.798408508300781,4.11625337600708,0.47198426723480225
1744896842442896000,11.393895751953124,8.80798053741455,4.1593241691589355,0.47676992416381836
1744896842459713800,11.4107138671875,8.850452423095703,4.169493675231934,0.4145565330982208
1744896842476520200,11.427520263671875,8.916853904724121,4.194019794464111,0.37148571014404297
1744896842493341700,11.444341796875,8.979066848754883,4.198805332183838,0.3762713670730591
1744896842510154800,11.46115478515625,9.074779510498047,4.137190341949463,0.3900300860404968
1744896842526948400,11.4779482421875,9.066405296325684,4.046263217926025,0.389431893825531
1744896842543756800,11.4947568359375,9.019146919250488,3.9936211109161377,0.3798605799674988
1744896842560575700,11.51157568359375,8.94676399230957,4.012763500213623,0.34217363595962524
1744896842577385000,11.528385009765625,8.851051330566406,4.0456647872924805,0.3044866919517517
1744896842594195700,11.54519580078125,8.773882865905762,4.092923164367676,0.26620152592658997
1744896842611007000,11.562007080078125,8.725427627563477,4.17427921295166,0.19980068504810333
1744896842627810800,11.578810791015625,8.70508861541748,4.260420799255371,0.1860419660806656
1744896842644646400,11.595646484375,8.776275634765625,4.318446636199951,0.20518454909324646
1744896842661419800,11.612419677734374,8.914461135864258,4.347758769989014,0.1908276081085205
1744896842678253000,11.629253173828126,9.114859580993652,4.387240409851074,0.18544375896453857
1744896842695076000,11.646076171875,9.300901412963867,4.40757942199707,0.19980068504810333
1744896842711872000,11.6628720703125,9.363115310668945,4.383052825927734,0.26620152592658997
1744896842728698000,11.679697998046874,9.29731273651123,4.36809778213501,0.3523431420326233
1744896842745509600,11.696509521484375,9.10110092163086,4.4243292808532715,0.4342973232269287
1744896842762303200,11.71330322265625,8.843274116516113,4.4751763343811035,0.5018945336341858
1744896842779118300,11.730118408203126,8.62313461303711,4.5547380447387695,0.5790630578994751
1744896842795929000,11.74692919921875,8.532207489013672,4.606781959533691,0.6131607890129089
1744896842812740000,11.763739990234376,8.613563537597656,4.6163530349731445,0.6370890140533447
1744896842829551000,11.780551025390626,8.707481384277344,4.646861553192139,0.46002015471458435
1744896842846362600,11.797362548828126,8.836095809936523,4.628915309906006,0.3451646566390991
1744896842863173000,11.814173095703126,8.812167167663574,4.657031059265137,0.40737804770469666
1744896842879984400,11.830984375,8.680562019348145,4.526023864746094,0.5838487148284912
1744896842896796000,11.8477958984375,8.840283393859863,4.425525665283203,0.8075776696205139
1744896842913603600,11.864603515625,9.06281566619873,4.153940200805664,0.8297112584114075
1744896842930420700,11.881420654296875,9.293723106384277,3.9972102642059326,0.8949156403541565
1744896842947229400,11.8982294921875,9.57188892364502,3.9074792861938477,0.9750752449035645
1744896842964059100,11.91505908203125,9.69631576538086,3.8321053981781006,0.8835497498512268
1744896842980863200,11.93186328125,9.644869804382324,3.689134359359741,0.802193820476532
1744896842997669400,11.94866943359375,9.497711181640625,3.5880374908447266,0.7782655358314514
1744896843014485800,11.96548583984375,9.244669914245605,3.576671600341797,0.7740781307220459
1744896843031281400,11.982281494140626,8.837890625,3.655634880065918,0.760917603969574
1744896843048081400,11.999081298828125,8.335397720336914,3.758526086807251,0.719641387462616
1744896843064909600,12.01590966796875,7.977670669555664,3.7986059188842773,0.9122636318206787
1744896843081715700,12.0327158203125,7.840681552886963,3.758526086807251,1.1509476900100708
1744896843098528000,12.049528076171875,7.8795647621154785,3.7196428775787354,1.241276741027832
1744896843115343400,12.06634326171875,8.027321815490723,3.7256247997283936,1.1886346340179443
1744896843132167700,12.083167724609375,8.175078392028809,3.731606960296631,1.1359925270080566
1744896843148971800,12.0999716796875,8.237292289733887,3.7130625247955322,1.073180913925171
1744896843165790500,12.11679052734375,8.404789924621582,3.6711881160736084,1.0534402132034302
1744896843182594000,12.133593994140625,8.538787841796875,3.6095728874206543,1.0815558433532715
1744896843199413200,12.150413330078125,8.749356269836426,3.5772697925567627,1.057029366493225
1744896843216220700,12.167220703125,8.872586250305176,3.635295867919922,1.0378868579864502
1744896843233031200,12.18403125,8.93958568572998,3.6029927730560303,0.9326026439666748
1744896843249842400,12.200842529296875,9.053842544555664,3.6185460090637207,0.875174880027771
1744896843266654000,12.217654052734375,9.10110092163086,3.623929977416992,0.8081758618354797
1744896843283466200,12.23446630859375,9.08135986328125,3.685544967651367,0.8081758618354797
1744896843300257000,12.251257080078124,8.994022369384766,3.8285162448883057,0.828514814376831
1744896843317073700,12.26807373046875,8.897112846374512,3.9427735805511475,0.7860422134399414
1744896843333880800,12.284880859375,8.730213165283203,3.961317777633667,0.7674978375434875
1744896843350698800,12.30169873046875,8.70628547668457,3.970889091491699,0.7770691514015198
1744896843367506700,12.318506591796876,8.82114028930664,3.9565322399139404,0.833898663520813
1744896843384318000,12.33531787109375,8.989236831665039,3.8763725757598877,0.8715856671333313
1744896843401128700,12.352128662109376,9.266803741455078,3.8297126293182373,0.9326026439666748
1744896843417925600,12.368925537109375,9.448657989501953,3.7543387413024902,0.9320043921470642
1744896843434752300,12.385752197265624,9.56889820098877,3.6879379749298096,0.893121063709259
1744896843451580200,12.402580078125,9.535996437072754,3.597010612487793,0.9020941257476807
1744896843468386800,12.41938671875,9.360722541809082,3.4953157901763916,0.973878800868988
1744896843485202700,12.43620263671875,9.203991889953613,3.455834150314331,1.0504491329193115
1744896843502004500,12.45300439453125,9.032307624816895,3.435495138168335,1.1180464029312134
1744896843518816500,12.46981640625,8.976076126098633,3.3822548389434814,1.155733346939087
1744896843535618000,12.4866181640625,8.971888542175293,3.3296127319335938,1.1653046607971191
1744896843552428800,12.5034287109375,9.033503532409668,3.3445677757263184,1.1318050622940063
1744896843569242000,12.5202421875,9.06700325012207,3.334996461868286,1.1030912399291992
1744896843586040800,12.537040771484374,9.057432174682617,3.3541390895843506,1.1365907192230225
1744896843602852600,12.5538525390625,9.043074607849121,3.387040376663208,1.1940184831619263
1744896843619670000,12.570669921875,9.09990406036377,3.4163525104522705,1.1653046607971191
1744896843636504800,12.5875048828125,9.209376335144043,3.422334671020508,1.0600204467773438
1744896843653311000,12.60431103515625,9.342177391052246,3.442673683166504,0.9643075466156006
1744896843670119700,12.62111962890625,9.465408325195312,3.4534413814544678,0.8542376756668091
1744896843686914000,12.6379140625,9.561120986938477,3.4396824836730957,0.7722834944725037
1744896843703709700,12.654709716796875,9.594620704650879,3.4259238243103027,0.7722834944725037
1744896843720551400,12.671551513671876,9.575477600097656,3.401397466659546,0.8249256014823914
1744896843737372000,12.688371826171876,9.461220741271973,3.3960134983062744,0.8632107973098755
1744896843754164700,12.705164794921876,9.34157943725586,3.4337005615234375,0.8542376756668091
1744896843770982100,12.721982177734375,9.241081237792969,3.4570305347442627,0.8500502705574036
1744896843787786500,12.738786376953126,9.207581520080566,3.48993182182312,0.8500502705574036
1744896843804595000,12.755594970703125,9.245866775512695,3.4378879070281982,0.8261220455169678
1744896843821406500,12.772406494140625,9.30867862701416,3.366701364517212,0.8063812255859375
1744896843838217500,12.789217529296875,9.34277629852295,3.2757742404937744,0.8009973764419556
1744896843855025700,12.806025634765625,9.343374252319336,3.208775281906128,0.8201399445533752
1744896843871842600,12.822842529296874,9.31585693359375,3.146561861038208,0.8530412912368774
1744896843888638700,12.839638671875,9.292527198791504,3.084348440170288,0.8721838593482971
1744896843905450500,12.856450439453125,9.32602596282959,3.060420274734497,0.8476574420928955
1744896843922258200,12.873258056640625,9.306883811950684,3.060420274734497,0.8530412912368774
1744896843939104300,12.890104248046875,9.2919282913208,3.1268210411071777,0.867398202419281
1744896843955904800,12.90690478515625,9.300901412963867,3.2129626274108887,0.9152546525001526
1744896843972723700,12.9237236328125,9.352347373962402,3.318246841430664,0.9158528447151184
1744896843989523700,12.940523681640625,9.356534957885742,3.352344512939453,0.8249256014823914
1744896844006342000,12.957341796875,9.32183837890625,3.476771354675293,0.7543373107910156
1744896844023126800,12.974126708984375,9.263215065002441,3.5676984786987305,0.7405785918235779
1744896844039950600,12.99095068359375,9.272188186645508,3.6442689895629883,0.7405785918235779
1744896844056761900,13.007761962890624,9.315258979797363,3.6442689895629883,0.7214360237121582
1744896844073569300,13.0245693359375,9.334999084472656,3.625126361846924,0.7932206988334656
1744896844090387200,13.04138720703125,9.32602596282959,3.5910286903381348,0.9314061999320984
1744896844107195000,13.05819482421875,9.359525680541992,3.6293137073516846,0.97926265001297
1744896844124003600,13.075003662109374,9.317052841186523,3.5671002864837646,0.8979067206382751
1744896844140834000,13.091833984375,9.224929809570312,3.61017107963562,0.7884350419044495
1744896844157609700,13.108609619140625,9.124430656433105,3.6574294567108154,0.7890332937240601
1744896844174453000,13.125452880859376,9.043074607849121,3.652045488357544,0.7986045479774475
1744896844191248600,13.14224853515625,8.991629600524902,3.6083765029907227,0.8560323119163513
1744896844208058400,13.159058349609374,8.978468894958496,3.4743785858154297,0.898504912853241
1744896844224885200,13.17588525390625,8.941978454589844,3.315854072570801,0.9457631707191467
1744896844241686500,13.1926865234375,8.914461135864258,3.200998544692993,0.9930213689804077
1744896844258492200,13.2094921875,8.886942863464355,3.1004998683929443,0.9732806086540222
1744896844275297500,13.226297607421875,8.796614646911621,3.0664021968841553,0.9924231767654419
1744896844292114200,13.2431142578125,8.662615776062012,3.084946632385254,0.9451649188995361
1744896844308928300,13.25992822265625,8.700303077697754,3.1375887393951416,0.9266205430030823
1744896844325736400,13.276736328125,8.805587768554688,3.119642496109009,0.916451096534729
1744896844342553300,13.29355322265625,8.767302513122559,3.180659532546997,1.074377417564392
1744896844359339300,13.31033935546875,8.720044136047363,3.2267212867736816,1.3088740110397339
1744896844376172500,13.327172607421875,8.639286041259766,3.283550977706909,1.428515076637268
1744896844392984300,13.343984375,8.824729919433594,3.3373894691467285,1.3663017749786377
1744896844409794800,13.360794921875,9.196215629577637,3.3589248657226562,1.2843475341796875
1744896844426626300,13.377626220703124,9.502496719360352,3.256033420562744,1.1826525926589966
1744896844443424500,13.394424560546875,9.741181373596191,3.205185890197754,1.062413215637207
1744896844460232000,13.41123193359375,9.932008743286133,3.139981508255005,0.9517452120780945
1744896844477052400,13.428052490234375,10.089935302734375,3.07417893409729,0.8602197170257568
1744896844493860000,13.444860107421874,10.076175689697266,2.9599215984344482,0.7597211599349976
1744896844510660000,13.46166015625,9.845867156982422,3.002394199371338,0.6693921089172363
1744896844527475200,13.47847509765625,9.538987159729004,3.0825538635253906,0.5467599630355835
1744896844544283400,13.495283447265624,9.366106033325195,3.1483564376831055,0.4707878530025482
1744896844561094700,13.5120947265625,9.18006420135498,3.104687452316284,0.39481574296951294
1744896844577893000,13.52889306640625,9.089137077331543,3.1232316493988037,0.4378865361213684
1744896844594714400,13.54571435546875,9.002995491027832,3.1375887393951416,0.39541393518447876
1744896844611547600,13.562547607421875,8.97787094116211,3.195016384124756,0.28594231605529785
1744896844628349200,13.57934912109375,8.953344345092773,3.2715866565704346,0.2626122832298279
1744896844645159700,13.59615966796875,8.938986778259277,3.2859437465667725,0.25782662630081177
1744896844661963000,13.612962890625,8.915059089660645,3.2955150604248047,0.22911277413368225
1744896844678786300,13.629786376953126,8.857032775878906,3.3475589752197266,0.22492532432079315
1744896844695593700,13.64659375,8.779864311218262,3.404986619949341,0.22552353143692017
1744896844712416000,13.663416015625,8.769695281982422,3.462414264678955,0.20159530639648438
1744896844729220000,13.68022021484375,8.96112060546875,3.4205398559570312,0.15314064919948578
1744896844746029000,13.697029052734376,9.19561767578125,3.297907829284668,0.08973085135221481
1744896844762846700,13.7138466796875,9.388239860534668,3.160320520401001,0.10767702013254166
1744896844779643600,13.7306435546875,9.498908042907715,3.0652058124542236,0.1453639715909958
1744896844796447200,13.747447265625,9.494720458984375,3.040679454803467,0.1788634955883026
1744896844813261000,13.764260986328125,9.475577354431152,3.064607620239258,0.15493527054786682
1744896844830072300,13.781072265625,9.384052276611328,3.102294445037842,0.1459621787071228
1744896844846883800,13.7978837890625,9.259625434875488,3.125624656677246,0.13220344483852386
1744896844863692000,13.814692138671875,9.130413055419922,3.1680972576141357,0.11844471842050552
1744896844880497200,13.8314970703125,9.04845905303955,3.2159535884857178,0.09930214285850525
1744896844897316900,13.84831689453125,9.08135986328125,3.2590243816375732,0.03290131315588951
1744896844914147800,13.86514794921875,9.142974853515625,3.2691938877105713,-0.010169495828449726
1744896844930934500,13.8819345703125,9.229117393493652,3.2650065422058105,-0.005982056725770235
1744896844947764700,13.8987646484375,9.287142753601074,3.2410783767700195,0.061016976833343506
1744896844964575000,13.915574951171875,9.367900848388672,3.2608189582824707,0.07956135272979736
1744896844981409800,13.932409912109375,9.4390869140625,3.304488182067871,0.013160524889826775
1744896844998185700,13.949185791015625,9.500701904296875,3.3242287635803223,-0.06340979784727097
1744896845014994200,13.965994140625,9.591629981994629,3.3056845664978027,-0.0687936544418335
1744896845031805400,13.982805419921876,9.634700775146484,3.2482566833496094,-0.05024927482008934
1744896845048616700,13.99961669921875,9.597013473510742,3.2380871772766113,-0.0023928226437419653
1744896845065420500,14.016420654296875,9.44447135925293,3.1752755641937256,-0.05922235921025276
1744896845082239200,14.0332392578125,9.277571678161621,3.221935749053955,0.05563312768936157
1744896845099052800,14.050052734375,9.220144271850586,3.2309088706970215,0.05623133108019829
1744896845115874800,14.066874755859375,9.143573760986328,3.211766242980957,-0.015553346835076809
1744896845132686000,14.08368603515625,9.120243072509766,3.149552822113037,0.02273181453347206
1744896845149496800,14.100496826171875,9.09272575378418,3.077169895172119,0.06520441919565201
1744896845166307800,14.117307861328126,8.997611045837402,3.067000389099121,0.09930214285850525
1744896845183111400,14.134111328125,8.964112281799316,3.0717861652374268,0.12801600992679596
1744896845199939000,14.15093896484375,9.049654960632324,3.119642496109009,0.1657029688358307
1744896845216739800,14.16773974609375,9.174081802368164,3.111267566680908,0.13220344483852386
1744896845233554400,14.184554443359374,9.350552558898926,3.098107099533081,0.06939185410737991
1744896845250361900,14.20136181640625,9.479166984558105,3.098705291748047,0.05024927482008934
1744896845267174700,14.218174560546874,9.5264253616333,3.13220477104187,0.04546362906694412
1744896845283981300,14.234981201171875,9.660423278808594,3.1758737564086914,0.0975075215101242
1744896845300784000,14.2517841796875,9.861420631408691,3.129213809967041,0.09212367236614227
1744896845317591600,14.268591552734375,10.114460945129395,3.087937593460083,0.024526432156562805
1744896845334405400,14.2854052734375,10.156335830688477,3.0939197540283203,-0.10468599200248718
1744896845351216000,14.302216064453125,10.06002426147461,3.1561331748962402,-0.20877377688884735
1744896845368015000,14.31901513671875,9.911669731140137,3.212364435195923,-0.18005990982055664
1744896845384838700,14.335838623046875,9.840482711791992,3.173480987548828,-0.12263216078281403
1744896845401666300,14.352666259765625,9.765707015991211,3.0478577613830566,-0.017946170642971992
1744896845418478300,14.369478271484375,9.671789169311523,2.932404041290283,0.0729810893535614
1744896845435282400,14.386282470703126,9.57188892364502,2.9078776836395264,0.11126625537872314
1744896845452091000,14.4030908203125,9.479764938354492,3.0412776470184326,0.07836493849754333
1744896845468914700,14.419914794921874,9.443872451782227,3.218944549560547,-0.12622138857841492
1744896845485725400,14.436725341796874,9.412766456604004,3.334996461868286,-0.43130627274513245
1744896845502503000,14.4535029296875,9.277571678161621,3.4067811965942383,-0.5736792087554932
1744896845519327700,14.47032763671875,9.086145401000977,3.5054850578308105,-0.4821537733078003
1744896845536142000,14.48714208984375,9.013762474060059,3.638885021209717,-0.39541393518447876
1744896845552949200,14.50394921875,9.007781028747559,3.658625841140747,-0.5479564070701599
1744896845569772300,14.520772216796875,8.96949577331543,3.6921253204345703,-0.5808576941490173
1744896845586558700,14.537558837890625,8.902496337890625,3.6915271282196045,-0.5377869009971619
1744896845603400200,14.554400146484374,8.775078773498535,3.6185460090637207,-0.42352959513664246
1744896845620204000,14.5712041015625,8.581260681152344,3.473181962966919,-0.3278166949748993
1744896845637023000,14.58802294921875,8.591429710388184,3.3589248657226562,-0.3523431420326233
1744896845653825800,14.60482568359375,8.60758113861084,3.2057840824127197,-0.31465616822242737
1744896845670645000,14.62164501953125,8.603992462158203,3.0861430168151855,-0.25782662630081177
1744896845687433500,14.63843359375,8.676374435424805,3.0239295959472656,-0.1866401731967926
1744896845704264700,14.6552646484375,8.925827026367188,2.9718856811523438,-0.09212367236614227
1744896845721077200,14.6720771484375,9.128618240356445,2.8241288661956787,0.04007977992296219
1744896845737866500,14.688866455078125,9.168100357055664,2.746960401535034,0.2021935135126114
1744896845754696200,14.7056962890625,9.144171714782715,2.7661030292510986,0.24526432156562805
1744896845771508200,14.72250830078125,9.166903495788574,2.885744094848633,0.1740778535604477
1744896845788288500,14.73928857421875,9.223134994506836,2.9629125595092773,0.14117653667926788
1744896845805116700,14.75611669921875,9.261420249938965,2.9964120388031006,0.22193430364131927
1744896845821927000,14.772927001953125,9.241679191589355,3.067598581314087,0.27038896083831787
1744896845838738400,14.789738525390625,9.235696792602539,3.201596736907959,0.2470589429140091
1744896845855546400,14.80654638671875,9.253643035888672,3.2787652015686035,0.20458634197711945
1744896845872363800,14.82336376953125,9.29611587524414,3.3266217708587646,0.18544375896453857
1744896845889169700,14.840169677734375,9.372088432312012,3.3607194423675537,0.1663011759519577
1744896845905996000,14.85699609375,9.362516403198242,3.3792638778686523,0.18544375896453857
1744896845922790700,14.873790771484375,9.281160354614258,3.4169507026672363,0.22372891008853912
1744896845939619000,14.890619140625,9.266803741455078,3.4504501819610596,0.267397940158844
1744896845956427000,14.907427001953126,9.31466007232666,3.4408788681030273,0.2476571500301361
1744896845973243600,14.92424365234375,9.409774780273438,3.4229328632354736,0.18544375896453857
1744896845990029800,14.94102978515625,9.400801658630371,3.3894333839416504,0.18065811693668365
1744896846006849500,14.957849609375,9.263215065002441,3.373879909515381,0.2763710021972656
1744896846023644200,14.97464404296875,9.17707347869873,3.4067811965942383,0.3002992272377014
1744896846040474600,14.991474609375,9.109476089477539,3.4067811965942383,0.243469700217247
1744896846057278500,15.008278564453125,9.08135986328125,3.387040376663208,0.2386840581893921
1744896846074094000,15.025093994140626,9.08135986328125,3.377469062805176,0.2961117923259735
1744896846090921200,15.041921142578126,9.129815101623535,3.3583266735076904,0.30508488416671753
1744896846107713000,15.058713134765625,9.235098838806152,3.2967114448547363,0.2949153780937195
1744896846124543700,15.075543701171876,9.264410972595215,3.2440693378448486,0.34277185797691345
1744896846141352000,15.09235205078125,9.255437850952148,3.239283561706543,0.3810569941997528
1744896846158145800,15.109145751953125,9.139984130859375,3.2865419387817383,0.3529413342475891
1744896846174975200,15.125975341796876,9.134600639343262,3.3439695835113525,0.3768695592880249
1744896846191784700,15.14278466796875,9.177671432495117,3.3678979873657227,0.4055834412574768
1744896846208580400,15.159580322265626,9.259027481079102,3.339782238006592,0.3810569941997528
1744896846225390000,15.17639013671875,9.325428009033203,3.3780672550201416,0.41934216022491455
1744896846242214000,15.1932138671875,9.316454887390137,3.3780672550201416,0.46719861030578613
1744896846259022600,15.210022705078124,9.398408889770508,3.334996461868286,0.5335994362831116
1744896846275823900,15.226823974609376,9.55214786529541,3.2159535884857178,0.542572557926178
1744896846292637400,15.243637451171875,9.67777156829834,3.064009428024292,0.5126622319221497
1744896846309449000,15.260448974609375,9.625128746032715,2.99222469329834,0.4408775866031647
1744896846326260000,15.277260009765625,9.534201622009277,3.0346972942352295,0.4414757788181305
1744896846343071200,15.2940712890625,9.242876052856445,3.071187973022461,0.4660021960735321
1744896846359869000,15.310868896484376,9.018548965454102,3.1130621433258057,0.5575276613235474
1744896846376693200,15.327693359375,8.775078773498535,3.1824541091918945,0.6873382925987244
1744896846393499100,15.3444990234375,8.650053977966309,3.324826955795288,0.7890332937240601
1744896846410338300,15.36133837890625,8.715258598327637,3.4737801551818848,0.7651050686836243
1744896846427139800,15.378139892578124,8.971888542175293,3.5569307804107666,0.6358926296234131
1744896846443947300,15.394947265625,9.291330337524414,3.573082447052002,0.5682953596115112
1744896846460755700,15.411755615234375,9.54915714263916,3.5222349166870117,0.5533402562141418
1744896846477571000,15.428571044921876,9.726823806762695,3.466003656387329,0.5383850932121277
1744896846494370600,15.44537060546875,9.76989459991455,3.404388427734375,0.50907301902771
1744896846511182000,15.46218212890625,9.803394317626953,3.3852458000183105,0.4660021960735321
1744896846527981300,15.478981201171875,9.746564865112305,3.3230323791503906,0.45643091201782227
1744896846544804600,15.4958046875,9.561120986938477,3.273979663848877,0.4660021960735321
1744896846561605000,15.512605224609375,9.398408889770508,3.3068809509277344,0.4618147611618042
1744896846578425600,15.529425537109375,9.215956687927246,3.339184045791626,0.41515472531318665
1744896846595255300,15.54625537109375,9.053244590759277,3.362514019012451,0.372682124376297
1744896846612062500,15.5630625,8.928817749023438,3.3714871406555176,0.3535395562648773
1744896846628874800,15.579874755859375,8.800203323364258,3.403790235519409,0.3924229145050049
1744896846645683000,15.596682861328125,8.684749603271484,3.4749767780303955,0.43609192967414856
1744896846662481400,15.6134814453125,8.631509780883789,3.5605201721191406,0.4366901218891144
1744896846679307000,15.63030712890625,8.688339233398438,3.6233317852020264,0.3936193287372589
1744896846696117500,15.647117431640625,8.792427062988281,3.6532418727874756,0.32662028074264526
1744896846712929500,15.663929443359375,8.98803997039795,3.6544384956359863,0.2925225794315338
1744896846729713200,15.680713134765625,9.169894218444824,3.6029927730560303,0.2584248483181
1744896846746555400,15.697555419921875,9.294321060180664,3.589233875274658,0.2632105052471161
1744896846763344600,15.7143447265625,9.30867862701416,3.589832067489624,0.23449662327766418
1744896846780159500,15.731159423828124,9.29312515258789,3.6568312644958496,0.14356936514377594
1744896846796971000,15.747970947265625,9.259027481079102,3.6807594299316406,0.08195417374372482
1744896846813779200,15.764779296875,9.220742225646973,3.6951162815093994,0.08195417374372482
1744896846830595600,15.781595703125,9.196813583374023,3.704089403152466,0.0771685317158699
1744896846847404300,15.798404296875,9.177671432495117,3.713660717010498,0.08255238085985184
1744896846864215000,15.815215087890625,9.139386177062988,3.6993038654327393,0.06819544732570648
1744896846881026600,15.832026611328125,9.09093189239502,3.737588882446289,-0.003589233849197626
1744896846897825000,15.848824951171874,9.05264663696289,3.751945972442627,-0.04127619042992592
1744896846914662100,15.865662109375,9.000003814697266,3.7232320308685303,-0.050847481936216354
1744896846931476700,15.882476806640625,8.947959899902344,3.7130625247955322,-0.0077766734175384045
1744896846948268300,15.899268310546875,8.947959899902344,3.7034912109375,0.020937198773026466
1744896846965095000,15.916094970703124,8.953344345092773,3.693321704864502,0.058624155819416046
1744896846981889500,15.9328896484375,8.925228118896484,3.655036687850952,0.08255238085985184
1744896846998705000,15.949704833984375,8.911469459533691,3.6167514324188232,0.13040883839130402
1744896847015514400,15.966514404296875,8.892925262451172,3.5922250747680664,0.18783657252788544
1744896847032326000,15.983325927734375,8.916853904724121,3.606581926345825,0.2063809484243393
1744896847049137200,16.00013720703125,8.98803997039795,3.5928232669830322,0.19202402234077454
1744896847065948400,16.016948486328126,9.122037887573242,3.5647075176239014,0.16749759018421173
1744896847082772000,16.03377197265625,9.275776863098145,3.517449378967285,0.20997019112110138
1744896847099567900,16.05056787109375,9.394820213317871,3.518047571182251,0.2386840581893921
1744896847116379400,16.06737939453125,9.442676544189453,3.5569307804107666,0.21954147517681122
1744896847133190000,16.08418994140625,9.513264656066895,3.614956855773926,0.15254244208335876
1744896847149993200,16.1009931640625,9.488738059997559,3.648456335067749,0.11964113265275955
1744896847166814500,16.117814453125,9.388239860534668,3.6574294567108154,0.12442677468061447
1744896847183612400,16.1346123046875,9.302098274230957,3.7094733715057373,0.13938191533088684
1744896847200437000,16.15143701171875,9.215956687927246,3.737588882446289,0.16331014037132263
1744896847217251600,16.16825146484375,9.178269386291504,3.7369906902313232,0.19202402234077454
1744896847242464500,16.193464599609374,9.150154113769531,3.655634880065918,0.14416755735874176
1744896847259276500,16.210276611328126,9.126225471496582,3.64127779006958,0.13938191533088684
1744896847276092200,16.227092041015624,9.055039405822754,3.583850145339966,0.11545369029045105
1744896847292898800,16.24389892578125,9.007781028747559,3.544966697692871,0.13938191533088684
1744896847309696000,16.260696044921875,8.94137954711914,3.4779677391052246,0.16331014037132263
1744896847326521000,16.27752099609375,8.918049812316895,3.4582269191741943,0.20099709928035736
1744896847343331000,16.2943310546875,8.907880783081055,3.50129771232605,0.22073788940906525
1744896847360142600,16.311142578125,8.907281875610352,3.5874392986297607,0.23030917346477509
1744896847376940300,16.327940185546876,8.921041488647461,3.635295867919922,0.21655045449733734
1744896847393762600,16.344762451171874,8.944969177246094,3.668795347213745,0.22133609652519226
1744896847410595600,16.361595703125,9.016754150390625,3.6735808849334717,0.25423741340637207
1744896847427401700,16.378401611328126,9.135796546936035,3.6981074810028076,0.268594354391098
1744896847444211200,16.395211181640626,9.269794464111328,3.6849467754364014,0.25363919138908386
1744896847461004000,16.412004150390626,9.403194427490234,3.714258909225464,0.27756741642951965
1744896847477797600,16.428797607421874,9.44626522064209,3.6951162815093994,0.2584248483181
1744896847494632000,16.4456318359375,9.445667266845703,3.7334015369415283,0.2679961323738098
1744896847511442000,16.46244189453125,9.354740142822266,3.7429728507995605,0.2153540402650833
1744896847528254200,16.479254150390624,9.244669914245605,3.7710886001586914,0.20159530639648438
1744896847545064200,16.496064208984375,9.115457534790039,3.775275945663452,0.2021935135126114
1744896847561879600,16.512879638671876,9.025128364562988,3.741178274154663,0.14476576447486877
1744896847578683600,16.52968359375,8.986844062805176,3.726821184158325,0.1495514214038849
1744896847595509500,16.546509521484374,8.963513374328613,3.6741790771484375,0.16869398951530457
1744896847612322300,16.563322265625,8.94975471496582,3.6257245540618896,0.20159530639648438
1744896847629134300,16.58013427734375,8.883354187011719,3.6113674640655518,0.18783657252788544
1744896847645944600,16.596944580078127,8.882756233215332,3.606581926345825,0.15912270545959473
1744896847662756900,16.6137568359375,8.834898948669434,3.6257245540618896,0.1495514214038849
1744896847679580000,16.630579833984374,8.787042617797852,3.6538400650024414,0.19262222945690155
1744896847696378400,16.64737841796875,8.8109712600708,3.7010984420776367,0.259621262550354
1744896847713188900,16.66418896484375,8.95394229888916,3.7357943058013916,0.2309073805809021
1744896847729984300,16.680984375,9.148957252502441,3.7471601963043213,0.1256231814622879
1744896847746797000,16.697797119140624,9.306285858154297,3.7669010162353516,0.06759724020957947
1744896847763606000,16.71460595703125,9.358329772949219,3.772284984588623,0.05802594870328903
1744896847780419300,16.73141943359375,9.367302894592285,3.8249270915985107,0.0729810893535614
1744896847797234700,16.748234619140625,9.31466007232666,3.820141315460205,0.029910283163189888
1744896847814041600,16.76504150390625,9.162117958068848,3.8291144371032715,0.01136590726673603
1744896847830853400,16.781853271484376,9.028717994689941,3.799204111099243,0.030508488416671753
1744896847847652600,16.798652587890626,8.857032775878906,3.793222188949585,0.11665010452270508
1744896847864476000,16.815475830078125,8.738588333129883,3.782454490661621,0.1986042857170105
1744896847881281500,16.832281494140624,8.704490661621094,3.79681134223938,0.19381862878799438
1744896847898102500,16.8491025390625,8.752346992492676,3.7776687145233154,0.17946170270442963
1744896847914925300,16.86592529296875,8.882157325744629,3.731008768081665,0.19322042167186737
1744896847931730000,16.88272998046875,8.997013092041016,3.683152198791504,0.2356930375099182
1744896847948531700,16.89953173828125,9.10229778289795,3.6741790771484375,0.23988047242164612
1744896847965339400,16.91633935546875,9.193224906921387,3.6939198970794678,0.23988047242164612
1744896847982152400,16.93315234375,9.254839897155762,3.713660717010498,0.19680966436862946
1744896847998964700,16.94996484375,9.282955169677734,3.690330743789673,0.14895321428775787
1744896848015774700,16.966774658203125,9.216554641723633,3.680161237716675,0.1537388563156128
1744896848032586800,16.983586669921873,9.139984130859375,3.6939198970794678,0.1824527233839035
1744896848049397000,17.00039697265625,9.068199157714844,3.70767879486084,0.1782652884721756
1744896848066226400,17.017226318359373,9.063413619995117,3.7363924980163574,0.19262222945690155
1744896848083028200,17.0340283203125,9.087342262268066,3.7369906902313232,0.19262222945690155
1744896848099848700,17.0508486328125,9.148957252502441,3.775275945663452,0.17347964644432068
1744896848116656000,17.06765625,9.210572242736816,3.8189449310302734,0.13998012244701385
1744896848133466000,17.084466064453125,9.20997428894043,3.862015724182129,0.08255238085985184
1744896848150278100,17.101278076171877,9.318249702453613,3.9397823810577393,0.01615155301988125
1744896848167085300,17.118085205078124,9.351749420166016,3.9637107849121094,-0.0029910283628851175
1744896848183900000,17.13489990234375,9.32303524017334,3.9589250087738037,-0.0029910283628851175
1744896848200712700,17.151712646484373,9.217751502990723,3.9535412788391113,-0.02632104977965355
1744896848217507600,17.168507568359374,9.236893653869629,4.001397609710693,0.07357929646968842
1744896848234320000,17.18531982421875,9.242277145385742,3.972085475921631,0.0975075215101242
1744896848251130000,17.202130126953126,9.272188186645508,3.871587038040161,0.14476576447486877
1744896848267931000,17.218930908203124,9.311071395874023,3.8572301864624023,0.24945175647735596
1744896848284752100,17.235752197265626,9.33559799194336,3.7950167655944824,0.25423741340637207
1744896848301564400,17.252564453125,9.421140670776367,3.809971809387207,0.24466611444950104
1744896848318374400,17.26937451171875,9.559925079345703,3.8009986877441406,0.25363919138908386
1744896848335186400,17.2861865234375,9.612566947937012,3.786641836166382,0.3152543902397156
1744896848351996400,17.302996337890626,9.545567512512207,3.8291144371032715,0.3924229145050049
1744896848368808700,17.31980859375,9.482755661010742,3.90987229347229,0.38344982266426086
1744896848385620700,17.336620849609375,9.400801658630371,3.9672999382019043,0.32662028074264526
1744896848402430700,17.3534306640625,9.343374252319336,3.9912281036376953,0.29790642857551575
1744896848419253800,17.370253662109373,9.271589279174805,3.9667017459869385,0.2883351147174835
1744896848436063000,17.38706298828125,9.162117958068848,3.9565322399139404,0.2602194547653198
1744896848452867600,17.40386767578125,9.21834945678711,3.9906299114227295,0.19800607860088348
1744896848469675000,17.420675048828127,9.218947410583496,3.9762730598449707,0.20757736265659332
1744896848486482400,17.437482421875,9.204590797424316,4.0145583152771,0.26979073882102966
1744896848503297300,17.45429736328125,9.214759826660156,3.9900317192077637,0.3409772217273712
1744896848520107300,17.471107177734375,9.247062683105469,4.0905303955078125,0.389431893825531
1744896848536921600,17.487921630859375,9.270393371582031,4.143172264099121,0.355932354927063
1744896848553740300,17.504740234375,9.360722541809082,4.201198577880859,0.35114672780036926
1744896848570560000,17.52156005859375,9.364909172058105,4.216153621673584,0.23688943684101105
1744896848587353600,17.538353515625,9.383454322814941,4.249652862548828,0.23688943684101105
1744896848604169700,17.555169677734376,9.349356651306152,4.297509670257568,0.21355941891670227
1744896848620988200,17.57198828125,9.392427444458008,4.302893161773682,0.23210379481315613
1744896848637770800,17.588770751953124,9.473783493041992,4.289134502410889,0.16510476171970367
1744896848654604000,17.60560400390625,9.545567512512207,4.265206336975098,0.14117653667926788
1744896848671422200,17.622422119140627,9.550353050231934,4.241278171539307,0.15972091257572174
1744896848688224000,17.63922412109375,9.507282257080078,4.231706619262695,0.11724831163883209
1744896848705000700,17.656000732421877,9.483354568481445,4.208376884460449,0.064606212079525
1744896848721840000,17.672840087890624,9.473783493041992,4.179663181304932,0.040677983313798904
1744896848738652700,17.689652587890624,9.407382011413574,4.140779495239258,0.031106693670153618
1744896848755462700,17.706462646484376,9.33141040802002,4.125824451446533,0.0933200865983963
1744896848772274400,17.7232744140625,9.260822296142578,4.07258415222168,0.19800607860088348
1744896848789084700,17.740084716796876,9.276374816894531,4.019343852996826,0.29850462079048157
1744896848805894100,17.75689404296875,9.281160354614258,4.004986763000488,0.35533416271209717
1744896848822706700,17.773706787109376,9.276374816894531,4.033102512359619,0.40319061279296875
1744896848839519000,17.79051904296875,9.324830055236816,4.047459602355957,0.4749752879142761
1744896848856329000,17.807328857421876,9.396614074707031,3.999603033065796,0.5030909776687622
1744896848873144800,17.824144775390625,9.459425926208496,3.9427735805511475,0.5216353535652161
1744896848889947400,17.840947509765623,9.531210899353027,3.937987804412842,0.550349235534668
1744896848906766600,17.8577666015625,9.588638305664062,3.9433717727661133,0.5694918036460876
1744896848923564000,17.87456396484375,9.688538551330566,3.958326816558838,0.544965386390686
1744896848940397600,17.8913974609375,9.78843879699707,3.978067636489868,0.49232324957847595
1744896848957195300,17.9081953125,9.878767967224121,3.9984066486358643,0.4301098585128784
1744896848974004700,17.925004638671876,10.03131103515625,3.9900317192077637,0.3678964674472809
1744896848990820400,17.9418203125,10.083354949951172,4.004986763000488,0.3008974492549896
1744896849007622100,17.9586220703125,10.058828353881836,4.048057556152344,0.22492532432079315
1744896849024442600,17.975442626953125,9.976874351501465,4.109673023223877,0.20099709928035736
1744896849041240800,17.99224072265625,9.857233047485352,4.156930923461914,0.2350948303937912
1744896849058060000,18.00906005859375,9.689735412597656,4.194019794464111,0.2356930375099182
1744896849074888000,18.025887939453124,9.488738059997559,4.197608947753906,0.2267199456691742
1744896849091698000,18.042697998046876,9.360123634338379,4.187439441680908,0.2225325107574463
1744896849108477200,18.059477294921876,9.351749420166016,4.110869407653809,0.25064817070961
1744896849125325800,18.076325927734374,9.31466007232666,4.019343852996826,0.3361915946006775
1744896849142115600,18.093115478515625,9.234500885009766,3.961317777633667,0.4127618968486786
1744896849158930700,18.1099306640625,9.138788223266602,3.93679141998291,0.39840495586395264
1744896849175758000,18.126758056640625,9.053842544555664,3.8739798069000244,0.4223332107067108
1744896849192547300,18.14354736328125,8.916254997253418,3.8015968799591064,0.4749752879142761
1744896849209362700,18.16036279296875,8.758927345275879,3.8285162448883057,0.600000262260437
1744896849226172700,18.177172607421873,8.643473625183105,3.9326040744781494,0.6436693072319031
1744896849242985000,18.19398486328125,8.623732566833496,4.018745422363281,0.7058826684951782
1744896849259783700,18.21078369140625,8.6907320022583,4.018745422363281,0.7250252366065979
1744896849276595500,18.227595458984375,8.84925651550293,3.9810585975646973,0.7722834944725037
1744896849293426400,18.244426513671876,9.021539688110352,3.9391841888427734,0.7860422134399414
1744896849310233900,18.26123388671875,9.193822860717773,3.868596076965332,0.6849454641342163
1744896849327039200,18.278039306640625,9.45583724975586,3.837489366531372,0.5455635786056519
1744896849343848400,18.294848388671873,9.66102123260498,3.8626139163970947,0.5688936114311218
1744896849360664300,18.311664306640626,9.824331283569336,3.748356580734253,0.5389832854270935
1744896849377452000,18.3284521484375,10.022337913513184,3.572484254837036,0.6382854580879211
1744896849394283800,18.34528369140625,10.238289833068848,3.4157543182373047,0.6323033571243286
1744896849411112700,18.36211279296875,10.37228775024414,3.2883365154266357,0.43549370765686035
1744896849427904000,18.378904052734374,10.299306869506836,3.3272199630737305,0.23030917346477509
1744896849444714200,18.39571435546875,10.092328071594238,3.441477060317993,0.1501496136188507
1744896849461527800,18.41252783203125,9.81954574584961,3.5306098461151123,0.1417747437953949
1744896849478333200,18.429333251953125,9.623932838439941,3.5437703132629395,0.18065811693668365
1744896849495150300,18.446150390625,9.713065147399902,3.7112679481506348,0.1908276081085205
1744896849511962400,18.46296240234375,9.906285285949707,3.833899974822998,-0.11006984114646912
1744896849528772400,18.4797724609375,10.156933784484863,3.899104595184326,-0.43549370765686035
1744896849545601300,18.496601318359374,10.295717239379883,3.823132276535034,-0.49351966381073
1744896849562408200,18.513408203125,10.26461124420166,3.6358940601348877,-0.3601198196411133
1744896849579203800,18.530203857421874,10.258628845214844,3.4432718753814697,-0.046061836183071136
1744896849596034800,18.547034912109375,10.280762672424316,3.222533941268921,0.08673982322216034
1744896849612842500,18.563842529296874,10.262816429138184,2.974876642227173,-0.08135596662759781
1744896849629648600,18.580648681640625,10.100104331970215,2.898306369781494,-0.25304099917411804
1744896849646468600,18.597468505859375,9.741779327392578,2.882154941558838,-0.36670008301734924
1744896849663288300,18.614288330078125,9.393025398254395,2.9425735473632812,-0.3086741268634796
1744896849680075500,18.631075439453124,9.102895736694336,2.9066812992095947,-0.1788634955883026
1744896849696883200,18.64788330078125,8.936594009399414,2.8241288661956787,-0.08793623000383377
1744896849713681700,18.664681640625,8.928817749023438,2.7421748638153076,0.035892341285943985
1744896849730507000,18.681507080078124,9.000602722167969,2.68534517288208,0.01136590726673603
1744896849747317500,18.6983173828125,9.166903495788574,2.720041036605835,-0.05563312768936157
1744896849764127500,18.71512744140625,9.428318977355957,2.803191661834717,-0.15134602785110474
1744896849780956400,18.731956298828123,9.69511890411377,2.7864420413970947,-0.30508488416671753
1744896849797764900,18.748764892578127,9.820143699645996,2.710469961166382,-0.32961133122444153
1744896849814558200,18.76555810546875,9.854840278625488,2.647658348083496,-0.1818545162677765
1744896849831371800,18.782371826171875,9.880562782287598,2.5561327934265137,0.003589233849197626
1744896849848184000,18.79918408203125,9.924830436706543,2.4741785526275635,0.14656038582324982
1744896849864994000,18.815994140625,9.978070259094238,2.431107759475708,0.21296121180057526
1744896849881806000,18.83280615234375,10.045069694519043,2.4269204139709473,0.2512463629245758
1744896849898626600,18.84962646484375,10.17428207397461,2.455634355545044,0.3032902777194977
1744896849915445200,18.8664453125,10.292726516723633,2.475973129272461,0.18843477964401245
1744896849932235000,18.883235107421875,10.344172477722168,2.5531418323516846,0.1459621787071228
1744896849949050400,18.90005029296875,10.272387504577637,2.562114953994751,0.16510476171970367
1744896849965860600,18.916860595703124,10.172487258911133,2.5710878372192383,0.20338992774486542
1744896849982672600,18.933672607421876,10.110274314880371,2.62313175201416,0.26141586899757385
1744896849999496200,18.95049609375,10.13898754119873,2.6183462142944336,0.2470589429140091
1744896850016294700,18.967294677734376,10.153345108032227,2.5663022994995117,0.21774685382843018
1744896850033105400,18.98410546875,10.182656288146973,2.537588357925415,0.275174617767334
1744896850049930800,19.0009306640625,10.087542533874512,2.489133834838867,0.2799602448940277
1744896850066740700,19.01774072265625,10.021141052246094,2.455035924911499,0.27038896083831787
1744896850083547400,19.03454736328125,10.04566764831543,2.392822742462158,0.2745763957500458
1744896850100364300,19.0513642578125,10.085148811340332,2.2642083168029785,0.3170489966869354
1744896850117179100,19.06817919921875,10.067801475524902,2.148754835128784,0.40737804770469666
1744896850133981700,19.084981689453127,10.039685249328613,2.0715861320495605,0.4546363055706024
1744896850150801200,19.10180126953125,9.987641334533691,2.0476579666137695,0.45942193269729614
1744896850167590100,19.118590087890624,9.93978500366211,2.0572292804718018,0.40737804770469666
1744896850184404500,19.135404541015625,9.939187049865723,2.0620148181915283,0.33080771565437317
1744896850201213000,19.152212890625,9.881759643554688,2.0811574459075928,0.32183465361595154
1744896850218018300,19.169018310546875,9.81954574584961,2.080559253692627,0.35054850578308105
1744896850234834400,19.18583447265625,9.795618057250977,2.104487419128418,0.35054850578308105
1744896850251652900,19.20265283203125,9.828518867492676,2.1379871368408203,0.34576287865638733
1744896850268477400,19.2194775390625,9.861420631408691,2.162513494491577,0.3170489966869354
1744896850285267200,19.23626708984375,9.961918830871582,2.1822543144226074,0.32662028074264526
1744896850302080500,19.25308056640625,10.01456069946289,2.1678972244262695,0.35533416271209717
1744896850318882000,19.269882080078126,10.000802040100098,2.1481566429138184,0.4408775866031647
1744896850335702500,19.28670263671875,9.952945709228516,2.1858434677124023,0.5132604837417603
1744896850352518000,19.303517822265626,9.92423152923584,2.2337000370025635,0.537188708782196
1744896850369326300,19.320326416015625,9.9140625,2.2719850540161133,0.48454657196998596
1744896850386138400,19.337138427734374,9.93260669708252,2.3150558471679688,0.4612165689468384
1744896850402948600,19.353948486328125,9.875179290771484,2.3575284481048584,0.4660021960735321
1744896850419761400,19.370761474609374,9.802796363830566,2.4053850173950195,0.47617170214653015
1744896850436572700,19.38757275390625,9.750154495239258,2.4574289321899414,0.48095735907554626
1744896850453380000,19.404380126953125,9.811769485473633,2.510071039199829,0.4815555512905121
1744896850470193700,19.421193603515626,10.05404281616211,2.541177749633789,0.34695929288864136
1744896850487004400,19.43800439453125,10.211968421936035,2.4993033409118652,0.2841476798057556
1744896850503811800,19.454811767578125,10.16889762878418,2.527418851852417,0.3613162338733673
1744896850520642800,19.471642822265625,10.058828353881836,2.606980323791504,0.4905286431312561
1744896850537447200,19.488447265625,9.876375198364258,2.792423963546753,0.5539384484291077
1744896850554270500,19.5052705078125,9.817750930786133,2.9353952407836914,0.6023930907249451
1744896850571073500,19.522073486328125,9.81117057800293,3.315854072570801,0.9912267923355103
1744896850587868700,19.53886865234375,9.65085220336914,2.9718856811523438,0.7034898400306702
1744896850604680000,19.555679931640626,9.606584548950195,3.153141975402832,0.7998009920120239
1744896850621507600,19.572507568359374,9.466604232788086,3.177668571472168,0.5569294691085815
1744896850638333200,19.589333251953125,9.366106033325195,3.214757204055786,0.5952146053314209
1744896850655113500,19.606113525390626,9.123832702636719,3.1274192333221436,0.6819544434547424
1744896850671929300,19.622929443359375,8.849854469299316,2.9760732650756836,0.96370929479599
1744896850688737800,19.63973779296875,8.647063255310059,2.8965117931365967,1.3507484197616577
1744896850705537000,19.656537109375,8.602197647094727,2.8319056034088135,1.7802600860595703
1744896850722360000,19.673360107421875,8.617751121520996,2.376072883605957,1.1335997581481934
1744896850739170300,19.69017041015625,8.621339797973633,2.2677977085113525,0.7698906660079956
1744896850755995000,19.706994873046874,8.72482967376709,2.2510478496551514,0.4019941985607147
1744896850772807700,19.7238076171875,8.895318031311035,2.362314224243164,0.349352091550827
1744896850789604400,19.740604248046875,8.998807907104492,1.9094724655151367,0.1657029688358307
1744896850806409200,19.7574091796875,9.176474571228027,1.9142581224441528,0.3565305769443512
1744896850823226400,19.774226318359375,9.409774780273438,2.2055842876434326,0.7339983582496643
1744896850840050400,19.791050537109374,9.45464038848877,2.00518536567688,0.6999006271362305
1744896850856848600,19.8078486328125,9.622735977172852,1.8293129205703735,0.5934200286865234
1744896850873654000,19.824654052734374,9.857233047485352,1.825723648071289,0.6837490797042847
1744896850890470400,19.841470458984375,9.961918830871582,1.8598214387893677,0.6502495408058167
1744896850907280600,19.85828076171875,9.873982429504395,1.9698911905288696,0.5359922647476196
1744896850924085800,19.875085693359374,9.652048110961914,2.132004976272583,0.4181457459926605
1744896850940903000,19.89190283203125,9.436694145202637,2.2169501781463623,0.4139583110809326
1744896850957704000,19.908703857421877,9.150154113769531,2.2773690223693848,0.50129634141922
1744896850974521900,19.92552197265625,9.016156196594238,2.3856441974639893,0.6215356588363647
1744896850991340500,19.942340576171876,9.068199157714844,2.5094728469848633,0.7746763229370117
1744896851008162600,19.95916259765625,9.273384094238281,2.5387847423553467,0.8697910308837891
1744896851024973000,19.97597314453125,9.394221305847168,2.434098720550537,0.9026923179626465
1744896851041765600,19.992765625,9.43310546875,2.3676979541778564,0.9020941257476807
1744896851058595600,20.009595703125,9.476176261901855,2.338984251022339,0.8638089895248413
1744896851075398400,20.0263984375,9.527621269226074,2.359323024749756,0.7441678643226624
1744896851092225000,20.04322509765625,9.613164901733398,2.383849620819092,0.6628118753433228
1744896851109011000,20.060010986328123,9.637093544006348,2.3605196475982666,0.6197410821914673
1744896851125823000,20.076822998046875,9.603593826293945,2.3222343921661377,0.6293123364448547
1744896851142619600,20.09361962890625,9.637691497802734,2.3647069931030273,0.753140926361084
1744896851159448000,20.110447998046876,9.671191215515137,2.4023938179016113,0.8919246196746826
1744896851176258000,20.127258056640624,9.714859962463379,2.3736801147460938,0.9535398483276367
1744896851193070000,20.144070068359376,9.752547264099121,2.3742783069610596,0.8584251403808594
1744896851209867300,20.1608671875,9.795019149780273,2.365305185317993,0.753140926361084
1744896851226692400,20.1776923828125,9.780064582824707,2.3994028568267822,0.6717849373817444
1744896851243499500,20.19449951171875,9.731609344482422,2.4424736499786377,0.6149554252624512
1744896851260315000,20.21131494140625,9.641280174255371,2.4323041439056396,0.6149554252624512
1744896851277146600,20.228146728515625,9.53659439086914,2.431107759475708,0.6873382925987244
1744896851293950500,20.244950439453124,9.436694145202637,2.3778674602508545,0.7537391185760498
1744896851310747600,20.26174755859375,9.399007797241211,2.3676979541778564,0.7776673436164856
1744896851327558700,20.27855859375,9.379266738891602,2.373081922531128,0.6921239495277405
1744896851344369000,20.295368896484376,9.379266738891602,2.3682961463928223,0.649053156375885
1744896851361180700,20.3121806640625,9.302696228027344,2.334796667098999,0.6203392744064331
1744896851377971700,20.3289716796875,9.245866775512695,2.30069899559021,0.6634100675582886
1744896851394803000,20.345802978515625,9.236893653869629,2.30069899559021,0.6825526356697083
1744896851411609900,20.36260986328125,9.317651748657227,2.296511650085449,0.6059823632240295
1744896851428428500,20.379428466796874,9.436694145202637,2.3120648860931396,0.5437689423561096
1744896851445235200,20.396235107421877,9.45045280456543,2.307877540588379,0.45284169912338257
1744896851462047200,20.413047119140625,9.45882797241211,2.4131617546081543,0.4534398913383484
1744896851478844400,20.429844482421874,9.487542152404785,2.417947292327881,0.4055834412574768
1744896851495669500,20.44666943359375,9.486943244934082,2.4424736499786377,0.3577269911766052
1744896851512497700,20.46349755859375,9.482157707214355,2.437688112258911,0.33858439326286316
1744896851529304000,20.480303955078124,9.46301555633545,2.4424736499786377,0.3194418251514435
1744896851546099000,20.497098876953125,9.524032592773438,2.51425838470459,0.33379876613616943
1744896851562923800,20.513923828125,9.546764373779297,2.5674986839294434,0.21954147517681122
1744896851579725300,20.530725341796874,9.5802640914917,2.5776681900024414,0.15254244208335876
1744896851596550100,20.547550048828125,9.594620704650879,2.6057839393615723,0.22432711720466614
1744896851613359600,20.564359619140625,9.617950439453125,2.6488547325134277,0.25304099917411804
1744896851630155300,20.5811552734375,9.561718940734863,2.5435705184936523,0.25782662630081177
1744896851646968000,20.597968017578125,9.599406242370605,2.6009981632232666,0.3008974492549896
1744896851663764000,20.614763916015626,9.513862609863281,2.53399920463562,0.21954147517681122
1744896851680593400,20.631593505859374,9.432506561279297,2.571686029434204,0.2386840581893921
1744896851697402400,20.64840234375,9.34157943725586,2.599801778793335,0.2584248483181
1744896851714212600,20.665212646484374,9.346364974975586,2.5950162410736084,0.2679961323738098
1744896851731041300,20.682041259765626,9.332606315612793,2.537588357925415,0.27756741642951965
1744896851747831800,20.698831787109373,9.380462646484375,2.589632272720337,0.4013960063457489
1744896851764660200,20.71566015625,9.22433090209961,2.4406790733337402,0.3439682424068451
1744896851781453800,20.732453857421874,9.19980525970459,2.50289249420166,0.38285163044929504
1744896851798282800,20.74928271484375,9.10409164428711,2.54536509513855,0.3732803463935852
1744896851815075600,20.76607568359375,9.098708152770996,2.5698914527893066,0.27337998151779175
1744896851831890700,20.782890625,9.150752067565918,2.6177480220794678,0.2590230405330658
1744896851848701200,20.799701171875,9.21296501159668,2.565704107284546,0.2584248483181
1744896851865513000,20.816512939453126,9.357132911682129,2.513660192489624,0.28175488114356995
1744896851882323200,20.8333232421875,9.500701904296875,2.4711875915527344,0.26201409101486206
1744896851899135500,20.850135498046875,9.600004196166992,2.5058834552764893,0.22372891008853912
1744896851915945500,20.866945556640626,9.671191215515137,2.530410051345825,0.1663011759519577
1744896851932757200,20.88375732421875,9.713663101196289,2.583052158355713,0.14297115802764893
1744896851949567700,20.900567626953126,9.760921478271484,2.6123640537261963,0.11425728350877762
1744896851966379500,20.917379638671875,9.732208251953125,2.650649309158325,0.1094716340303421
1744896851983189500,20.934189453125,9.659825325012207,2.6979074478149414,0.0526420995593071
1744896852000019500,20.95101953125,9.582656860351562,2.7601208686828613,0.03888336941599846
1744896852016825600,20.96782568359375,9.510871887207031,2.7690939903259277,0.05802594870328903
1744896852033633300,20.98463330078125,9.5264253616333,2.7110681533813477,0.15314064919948578
1744896852050452500,21.001452392578123,9.54197883605957,2.6153552532196045,0.20997019112110138
1744896852067285200,21.01828515625,9.552745819091797,2.5292134284973145,0.27696922421455383
1744896852084065500,21.0350654296875,9.505488395690918,2.4711875915527344,0.30508488416671753
1744896852100889000,21.05188916015625,9.458230018615723,2.4233310222625732,0.3002992272377014
1744896852117658600,21.06865869140625,9.453444480895996,2.4089741706848145,0.2907279431819916
1744896852134490000,21.085489990234375,9.419944763183594,2.403590440750122,0.3242274820804596
1744896852151300400,21.10230029296875,9.382257461547852,2.4131617546081543,0.3481557071208954
1744896852168100600,21.1191005859375,9.353543281555176,2.431705951690674,0.38644084334373474
1744896852184922400,21.13592236328125,9.352945327758789,2.455634355545044,0.36311084032058716
1744896852201732900,21.15273291015625,9.367302894592285,2.4508485794067383,0.3678964674472809
1744896852218568700,21.169568603515625,9.391230583190918,2.4460630416870117,0.39601215720176697
1744896852235370800,21.186370849609375,9.396614074707031,2.427518606185913,0.39601215720176697
1744896852252181000,21.203180908203127,9.372088432312012,2.4508485794067383,0.38225340843200684
1744896852268999400,21.21999951171875,9.366703987121582,2.4849462509155273,0.3439682424068451
1744896852285803000,21.236802978515627,9.418747901916504,2.5046870708465576,0.25782662630081177
1744896852302611200,21.253611083984374,9.485747337341309,2.486142635345459,0.20518454909324646
1744896852319411700,21.27041162109375,9.471389770507812,2.462214469909668,0.21954147517681122
1744896852336223200,21.28722314453125,9.461220741271973,2.5286152362823486,0.22432711720466614
1744896852353033200,21.304033203125,9.441479682922363,2.557927370071411,0.14835500717163086
1744896852369845200,21.32084521484375,9.479166984558105,2.606382131576538,0.09092725813388824
1744896852386655700,21.33765576171875,9.507881164550781,2.6015963554382324,0.04785645380616188
1744896852403470800,21.354470947265625,9.517452239990234,2.6111676692962646,0.062213387340307236
1744896852420274200,21.371274169921875,9.550951957702637,2.596810817718506,0.11006984114646912
1744896852437089800,21.38808984375,9.603593826293945,2.5734808444976807,0.12861421704292297
1744896852453896400,21.404896484375,9.661619186401367,2.5351955890655518,0.14297115802764893
1744896852470715000,21.42171484375,9.67657470703125,2.482553482055664,0.18065811693668365
1744896852487539200,21.438539306640624,9.619745254516602,2.434098720550537,0.20458634197711945
1744896852504333600,21.45533349609375,9.543174743652344,2.4670002460479736,0.2189432680606842
1744896852521151500,21.4721513671875,9.500103950500488,2.4526431560516357,0.1621137410402298
1744896852537955000,21.488955078125,9.495318412780762,2.4388844966888428,0.14297115802764893
1744896852554782500,21.505782470703124,9.438488960266113,2.390429735183716,0.18065811693668365
1744896852571592200,21.52259228515625,9.333803176879883,2.3844478130340576,0.23389841616153717
1744896852588404200,21.539404296875,9.247661590576172,2.4125633239746094,0.243469700217247
1744896852605194500,21.556194580078124,9.195018768310547,2.4269204139709473,0.20578274130821228
1744896852622010400,21.57301025390625,9.209376335144043,2.441277265548706,0.2105683982372284
1744896852638822400,21.589822509765625,9.290133476257324,2.4466612339019775,0.20997019112110138
1744896852655632400,21.60663232421875,9.414560317993164,2.428116798400879,0.22432711720466614
1744896852672444700,21.623444580078125,9.54377269744873,2.3952155113220215,0.2476571500301361
