time,seconds_elapsed,z,y,x
1746620293867857000,0.05685693359375,1.6052980422973633,-4.285871505737305,0.1860031634569168
1746620293884672300,0.07367236328125,1.7619619369506836,-4.322333812713623,0.16848692297935486
1746620293901491700,0.09049169921875,1.8345184326171875,-4.332757949829102,0.12478722631931305
1746620293918295300,0.10729541015625,1.7510766983032227,-4.365189552307129,0.12229777872562408
1746620293935105300,0.124105224609375,1.7223806381225586,-4.384475231170654,0.050350844860076904
1746620293951912000,0.140911865234375,1.748967170715332,-4.3764190673828125,-0.07470008730888367
1746620293968729600,0.1577294921875,1.8037490844726562,-4.310840606689453,-0.15149779617786407
1746620293985529000,0.174529052734375,1.7628345489501953,-4.336263656616211,-0.09906120598316193
1746620294002355700,0.191355712890625,1.6357574462890625,-4.3793535232543945,-0.01012486219406128
1746620294019159000,0.208158935546875,1.5400447845458984,-4.369322776794434,-0.013226181268692017
1746620294035943400,0.224943359375,1.5445547103881836,-4.434145450592041,-0.06007227301597595
1746620294052776000,0.24177587890625,1.4740819931030273,-4.527507305145264,-0.06583258509635925
1746620294069560600,0.258560546875,1.360539436340332,-4.543169021606445,-0.11441871523857117
1746620294086393300,0.275393310546875,1.2289180755615234,-4.53843879699707,-0.1626051664352417
1746620294103205000,0.292205078125,1.2802143096923828,-4.5192766189575195,-0.15860947966575623
1746620294120005400,0.30900537109375,1.525221824645996,-4.552597522735596,-0.14471185207366943
1746620294136829700,0.32582958984375,1.6184263229370117,-4.650224208831787,-0.05655217170715332
1746620294153626000,0.342626220703125,1.6293840408325195,-4.624779224395752,-0.04993489384651184
1746620294170410500,0.359410400390625,1.6951990127563477,-4.634488582611084,0.05388107895851135
1746620294187247900,0.376247802734375,1.7249765396118164,-4.670256614685059,0.14184053242206573
1746620294204068600,0.393068603515625,1.7982826232910156,-4.67088508605957,0.040377527475357056
1746620294220859400,0.409859375,1.8720178604125977,-4.621233940124512,-0.06366237998008728
1746620294237664800,0.426664794921875,1.8987197875976562,-4.577470779418945,0.12939245998859406
1746620294254464500,0.443464599609375,1.928915023803711,-4.507629871368408,0.37881404161453247
1746620294271270400,0.4602705078125,1.9496498107910156,-4.540059566497803,0.4916577935218811
1746620294288072700,0.47707275390625,1.7501797676086426,-4.447872161865234,0.38418275117874146
1746620294304911000,0.4939111328125,1.4496521949768066,-4.355897903442383,0.18316654860973358
1746620294321710000,0.5107099609375,1.185011386871338,-4.298739910125732,0.06160008907318115
1746620294338485800,0.52748583984375,0.9021816253662109,-4.7052202224731445,0.4448343813419342
1746620294355299600,0.544299560546875,1.3391504287719727,-4.126794815063477,-0.3166300654411316
1746620294372122600,0.56112255859375,1.494192123413086,-4.406758785247803,-0.22463345527648926
1746620294388929800,0.5779296875,1.671036720275879,-4.509965419769287,-0.03812792897224426
1746620294405740300,0.594740234375,1.8729686737060547,-4.443166732788086,0.17450302839279175
1746620294422546700,0.611546630859375,1.7973556518554688,-4.398770809173584,0.3768162727355957
1746620294439356200,0.628356201171875,1.621293067932129,-4.294044494628906,0.46140289306640625
1746620294456163800,0.645163818359375,1.5389642715454102,-4.31574821472168,0.4395653307437897
1746620294472973300,0.661973388671875,1.608790397644043,-4.322235107421875,0.3845747113227844
1746620294489781500,0.678781494140625,1.6694631576538086,-4.4766693115234375,0.33389514684677124
1746620294506605000,0.69560498046875,1.6437721252441406,-4.487163066864014,0.31474733352661133
1746620294523406800,0.71240673828125,1.5732765197753906,-4.401216506958008,0.3727908134460449
1746620294540221000,0.729220947265625,1.5451135635375977,-4.317044258117676,0.3949333131313324
1746620294557031400,0.746031494140625,1.5066328048706055,-4.341080665588379,0.38958171010017395
1746620294573836800,0.7628369140625,1.5006084442138672,-4.334727764129639,0.2083844542503357
1746620294590644200,0.779644287109375,1.554804801940918,-4.348111629486084,0.1681283414363861
1746620294607454500,0.796454345703125,1.6414108276367188,-4.411071300506592,0.2446199357509613
1746620294624244200,0.813244140625,1.6878385543823242,-4.462967872619629,0.308624267578125
1746620294641070600,0.830070556640625,1.7296829223632812,-4.449394702911377,0.3076851963996887
1746620294657878500,0.84687841796875,1.7244672775268555,-4.41310453414917,0.2672618627548218
1746620294674675700,0.86367578125,1.7400569915771484,-4.40342903137207,0.31943705677986145
1746620294691494400,0.880494384765625,1.7431821823120117,-4.42861270904541,0.3087407946586609
1746620294708304600,0.8973046875,1.7451095581054688,-4.463691711425781,0.1834389865398407
1746620294725111600,0.914111572265625,1.6418495178222656,-4.483954429626465,0.15099972486495972
1746620294741921000,0.930921142578125,1.4802122116088867,-4.47699499130249,0.2208177149295807
1746620294758728700,0.947728759765625,1.4366044998168945,-4.397957801818848,0.28689682483673096
1746620294775540700,0.964540771484375,1.4722871780395508,-4.474493503570557,0.28759700059890747
1746620294792348400,0.981348388671875,1.4721364974975586,-4.54267692565918,0.2900458574295044
1746620294809159200,0.9981591796875,1.4778804779052734,-4.511532306671143,0.1555955410003662
1746620294825944300,1.0149443359375,1.455942153930664,-4.481284141540527,0.13911375403404236
1746620294842744300,1.031744384765625,1.3915634155273438,-4.476640701293945,0.23761430382728577
1746620294859565000,1.04856494140625,1.368058204650879,-4.421367168426514,0.3091127276420593
1746620294876374800,1.065374755859375,1.3099021911621094,-4.4163031578063965,0.4350736141204834
1746620294893192000,1.08219189453125,1.3770475387573242,-4.354195594787598,0.44166821241378784
1746620294909986300,1.098986328125,1.4764690399169922,-4.402645587921143,0.48980265855789185
1746620294926801700,1.1158017578125,1.5754165649414062,-4.445814609527588,0.5366311073303223
1746620294943597300,1.132597412109375,1.5598230361938477,-4.399018287658691,0.5507067441940308
1746620294960415000,1.1494150390625,1.5292654037475586,-4.361704349517822,0.4892631769180298
1746620294977224700,1.166224609375,1.5601978302001953,-4.346532344818115,0.45190945267677307
1746620294994040000,1.1830400390625,1.6473798751831055,-4.333923816680908,0.48664090037345886
1746620295010862000,1.199862060546875,1.754384994506836,-4.293856143951416,0.592937171459198
1746620295027662600,1.21666259765625,1.6963310241699219,-4.252744197845459,0.6568114757537842
1746620295044455400,1.233455322265625,1.5207633972167969,-4.224099159240723,0.6216095685958862
1746620295061275400,1.250275390625,1.3502883911132812,-4.234301567077637,0.5037656426429749
1746620295078093300,1.26709326171875,1.221449851989746,-4.252303123474121,0.440388947725296
1746620295094896400,1.283896484375,1.3594627380371094,-4.137657642364502,0.45140302181243896
1746620295111705300,1.300705322265625,1.6344890594482422,-4.208186149597168,0.546081006526947
1746620295128513000,1.317512939453125,1.7705001831054688,-4.331831932067871,0.6401605606079102
1746620295145322500,1.334322509765625,1.7713861465454102,-4.31183385848999,0.5026121139526367
1746620295162129200,1.351129150390625,1.7018089294433594,-4.391593933105469,0.48276445269584656
1746620295178939400,1.367939453125,1.6642980575561523,-4.458236217498779,0.48481255769729614
1746620295195742200,1.3847421875,1.5513792037963867,-4.421968936920166,0.44628506898880005
1746620295212556300,1.401556396484375,1.403940200805664,-4.375173091888428,0.45539093017578125
1746620295229367300,1.4183671875,1.3079195022583008,-4.363428115844727,0.5163223147392273
1746620295246172400,1.43517236328125,1.3416833877563477,-4.335550785064697,0.5012385845184326
1746620295262980400,1.45198046875,1.3507013320922852,-4.334534645080566,0.4942725598812103
1746620295279785200,1.46878515625,1.336165428161621,-4.35783576965332,0.4519212245941162
1746620295296583200,1.485583251953125,1.2607097625732422,-4.354509353637695,0.39077675342559814
1746620295313392400,1.502392333984375,1.2133302688598633,-4.318073272705078,0.3647725284099579
1746620295330200800,1.519200927734375,1.2364883422851562,-4.345778465270996,0.40700215101242065
1746620295347008300,1.53600830078125,1.3417291641235352,-4.399432182312012,0.40949738025665283
1746620295363816400,1.55281640625,1.433767318725586,-4.424089431762695,0.4448641538619995
1746620295380612600,1.569612548828125,1.5620107650756836,-4.4072370529174805,0.4083673357963562
1746620295397433300,1.586433349609375,1.6446008682250977,-4.393436431884766,0.4008852243423462
1746620295414227000,1.60322705078125,1.597458839416504,-4.349430561065674,0.43591731786727905
1746620295431051000,1.620051025390625,1.468240737915039,-4.274432182312012,0.4670996069908142
1746620295447860700,1.63686083984375,1.3265466690063477,-4.226447105407715,0.5012204647064209
1746620295464664000,1.6536640625,1.2369966506958008,-4.191342830657959,0.5361685752868652
1746620295481479000,1.67047900390625,1.2593889236450195,-4.16145133972168,0.5433918833732605
1746620295498284300,1.6872841796875,1.3663434982299805,-4.151274681091309,0.5676639676094055
1746620295515110400,1.7041103515625,1.4542160034179688,-4.211875915527344,0.5513715744018555
1746620295531909000,1.7209091796875,1.5273237228393555,-4.187949180603027,0.44013866782188416
1746620295548727800,1.737727783203125,1.548274040222168,-4.1910552978515625,0.3827071189880371
1746620295565514200,1.75451416015625,1.4683666229248047,-4.192425727844238,0.42202869057655334
1746620295582339600,1.771339599609375,1.3668203353881836,-4.168789386749268,0.44030794501304626
1746620295599142400,1.788142333984375,1.2222118377685547,-4.149645805358887,0.4599364399909973
1746620295615957000,1.80495703125,1.187643051147461,-4.151875972747803,0.46378445625305176
1746620295632760300,1.82176025390625,1.2952136993408203,-4.162107944488525,0.4873577356338501
1746620295649578200,1.838578125,1.3657569885253906,-4.232199668884277,0.593903660774231
1746620295666393300,1.855393310546875,1.4896116256713867,-4.211007118225098,0.5118370056152344
1746620295683194600,1.872194580078125,1.4524812698364258,-4.216496467590332,0.48418205976486206
1746620295699998700,1.888998779296875,1.3405237197875977,-4.196693420410156,0.5307556390762329
1746620295716811300,1.905811279296875,1.324662208557129,-4.163323879241943,0.5226180553436279
1746620295733619700,1.92261962890625,1.3984298706054688,-4.131845474243164,0.45494544506073
1746620295750416100,1.939416015625,1.3490982055664062,-4.174008369445801,0.4630715847015381
1746620295767237600,1.956237548828125,1.3326139450073242,-4.1207075119018555,0.42883187532424927
1746620295784064800,1.973064697265625,1.3557748794555664,-4.0968337059021,0.44319605827331543
1746620295800838000,1.989837890625,1.3511934280395508,-4.103517055511475,0.5264184474945068
1746620295817634800,2.006634765625,1.3497800827026367,-4.10788631439209,0.4958825707435608
1746620295834441000,2.02344091796875,1.4133691787719727,-4.1322221755981445,0.4194537401199341
1746620295851261000,2.040260986328125,1.4943428039550781,-4.186468124389648,0.3772403597831726
1746620295868063700,2.057063720703125,1.5754356384277344,-4.179780006408691,0.4038822650909424
1746620295884882200,2.073882080078125,1.5920515060424805,-4.16276741027832,0.46409499645233154
1746620295901681400,2.090681396484375,1.4832649230957031,-4.109561443328857,0.49311357736587524
1746620295918497300,2.107497314453125,1.3919029235839844,-4.095095157623291,0.43981075286865234
1746620295935285200,2.12428515625,1.3353605270385742,-4.096705913543701,0.39650899171829224
1746620295952111600,2.141111572265625,1.268026351928711,-4.11539888381958,0.3677079677581787
1746620295968919800,2.157919921875,1.2795495986938477,-4.129792213439941,0.3302555978298187
1746620295985726000,2.174725830078125,1.2933101654052734,-4.153520584106445,0.2945183515548706
1746620296002535200,2.19153515625,1.3823156356811523,-4.165413856506348,0.2967095971107483
1746620296019331800,2.208331787109375,1.5005311965942383,-4.159065246582031,0.3239721655845642
1746620296036138800,2.225138671875,1.5499868392944336,-4.162790775299072,0.45016878843307495
1746620296052961500,2.24196142578125,1.4917716979980469,-4.151379585266113,0.5590988397598267
1746620296069757700,2.2587578125,1.4536705017089844,-4.155928134918213,0.6405081748962402
1746620296086599000,2.275598876953125,1.4478368759155273,-4.126276016235352,0.6130810976028442
1746620296103382800,2.2923828125,1.418680191040039,-4.125193119049072,0.5665208697319031
1746620296120212500,2.30921240234375,1.3564472198486328,-4.153407573699951,0.5093511939048767
1746620296136994800,2.325994873046875,1.2665929794311523,-4.14625358581543,0.44889914989471436
1746620296153826000,2.342825927734375,1.1791257858276367,-4.05297327041626,0.4417935609817505
1746620296170632000,2.3596318359375,1.0035181045532227,-4.025990962982178,0.5422952175140381
1746620296187443200,2.376443115234375,0.9687957763671875,-3.9566826820373535,0.5690982341766357
1746620296204234000,2.39323388671875,0.9988861083984375,-3.9821367263793945,0.6012746691703796
1746620296221059300,2.410059326171875,0.9913711547851562,-3.9775261878967285,0.6259903907775879
1746620296237849300,2.426849365234375,1.0371055603027344,-3.9141716957092285,0.576146125793457
1746620296254655200,2.4436552734375,1.214263916015625,-3.9260928630828857,0.5038590431213379
1746620296271491300,2.4604912109375,1.4016456604003906,-4.0237836837768555,0.4831811785697937
1746620296288294400,2.47729443359375,1.4892091751098633,-4.090641498565674,0.48822638392448425
1746620296305100000,2.49410009765625,1.5264482498168945,-4.085383415222168,0.47621744871139526
1746620296321892000,2.51089208984375,1.484853744506836,-4.092846393585205,0.4912598133087158
1746620296338699000,2.527698974609375,1.419581413269043,-4.073904037475586,0.45336177945137024
1746620296355515400,2.544515380859375,1.326986312866211,-4.033952713012695,0.37820184230804443
1746620296372303400,2.561303466796875,1.2119455337524414,-4.004621982574463,0.366582453250885
1746620296389129500,2.57812939453125,1.1298141479492188,-3.9654176235198975,0.3708193600177765
1746620296405936600,2.5949365234375,1.0701055526733398,-3.933253765106201,0.3982354998588562
1746620296422746400,2.611746337890625,1.003300666809082,-3.887953758239746,0.3774608075618744
1746620296439553300,2.62855322265625,0.9258642196655273,-3.85001802444458,0.4131564497947693
1746620296456362800,2.64536279296875,0.9513177871704102,-3.7979488372802734,0.4198542535305023
1746620296473157400,2.662157470703125,1.0650749206542969,-3.8087539672851562,0.3768439292907715
1746620296489982000,2.67898193359375,1.1922941207885742,-3.8210158348083496,0.34419453144073486
1746620296506807000,2.69580712890625,1.3769207000732422,-3.8607842922210693,0.34989508986473083
1746620296523610000,2.712610107421875,1.4911479949951172,-3.913496494293213,0.4020701050758362
1746620296540414000,2.7294140625,1.549391746520996,-3.898305654525757,0.3755531311035156
1746620296557199400,2.746199462890625,1.4774551391601562,-3.912078619003296,0.36357343196868896
1746620296574000000,2.763000244140625,1.4289731979370117,-3.8229055404663086,0.3465263843536377
1746620296590827000,2.779826904296875,1.3404531478881836,-3.8089208602905273,0.4290250539779663
1746620296607640800,2.796640869140625,1.2294979095458984,-3.796921730041504,0.4603117108345032
1746620296624461600,2.813461669921875,1.1612863540649414,-3.758256673812866,0.3720337152481079
1746620296641251000,2.8302509765625,1.0334091186523438,-3.7503013610839844,0.38310033082962036
1746620296658066700,2.847066650390625,0.9088306427001953,-3.7271034717559814,0.45851075649261475
1746620296674874600,2.86387451171875,0.8589878082275391,-3.713306427001953,0.49555614590644836
1746620296691690200,2.880690185546875,0.8864641189575195,-3.7111427783966064,0.5013558864593506
1746620296708506000,2.897506103515625,0.9734716415405273,-3.751871109008789,0.4368422031402588
1746620296725311500,2.9143115234375,1.097487449645996,-3.73323917388916,0.37207719683647156
1746620296742118100,2.9311181640625,1.1322126388549805,-3.7127950191497803,0.3943338692188263
1746620296758928100,2.94792822265625,1.129969596862793,-3.7139482498168945,0.46251770853996277
1746620296775736800,2.96473681640625,1.1851272583007812,-3.715202808380127,0.47423678636550903
1746620296792544500,2.98154443359375,1.2446355819702148,-3.747274160385132,0.5077158808708191
1746620296809335300,2.998335205078125,1.279078483581543,-3.739610433578491,0.4601892828941345
1746620296826148400,3.0151484375,1.2853107452392578,-3.7287936210632324,0.403962641954422
1746620296842955300,3.031955322265625,1.2085933685302734,-3.699890613555908,0.4104900658130646
1746620296859762200,3.04876220703125,1.0865039825439453,-3.6518402099609375,0.4386776089668274
1746620296876574700,3.06557470703125,0.9974489212036133,-3.6185896396636963,0.43036264181137085
1746620296893382000,3.0823818359375,0.969757080078125,-3.623981475830078,0.44496941566467285
1746620296910185700,3.099185791015625,1.029301643371582,-3.600558280944824,0.4225500524044037
1746620296927001900,3.116001953125,1.0650062561035156,-3.6076316833496094,0.47030243277549744
1746620296943806000,3.132805908203125,1.0945043563842773,-3.562628984451294,0.4130605161190033
1746620296960615400,3.149615478515625,1.0698785781860352,-3.5648109912872314,0.4546993672847748
1746620296977422300,3.16642236328125,1.0500173568725586,-3.5996899604797363,0.4780385196208954
1746620296994218800,3.18321875,1.0482006072998047,-3.6100077629089355,0.4781911373138428
1746620297011039500,3.20003955078125,1.1182537078857422,-3.6573426723480225,0.46436217427253723
1746620297027849200,3.21684912109375,1.1685419082641602,-3.704463005065918,0.46585026383399963
1746620297044655900,3.23365576171875,1.2289361953735352,-3.73189115524292,0.4474073350429535
1746620297061465600,3.250465576171875,1.222407341003418,-3.761415958404541,0.4791800081729889
1746620297078258200,3.267258056640625,1.1898746490478516,-3.8075954914093018,0.5209110975265503
1746620297095086000,3.284086181640625,1.167057991027832,-3.7860560417175293,0.4544196128845215
1746620297111889700,3.3008896484375,1.0512113571166992,-3.7592568397521973,0.4438154697418213
1746620297128699400,3.317699462890625,0.9169750213623047,-3.711622476577759,0.4965616762638092
1746620297145506300,3.33450634765625,0.8632450103759766,-3.67630934715271,0.5419557690620422
1746620297162316500,3.351316650390625,0.8408069610595703,-3.6275198459625244,0.541276752948761
1746620297179140000,3.36814013671875,0.8460302352905273,-3.6232972145080566,0.5641324520111084
1746620297195952600,3.38495263671875,0.8643598556518555,-3.6164536476135254,0.530549943447113
1746620297212754400,3.40175439453125,0.8529682159423828,-3.6212873458862305,0.4877184331417084
1746620297229564000,3.41856396484375,0.9167299270629883,-3.6003804206848145,0.483626127243042
1746620297246340400,3.43534033203125,0.9848299026489258,-3.625223398208618,0.5364454388618469
1746620297263166500,3.45216650390625,1.0892705917358398,-3.610136032104492,0.5423350930213928
1746620297279972900,3.468972900390625,1.1756019592285156,-3.6332569122314453,0.5161576867103577
1746620297296784400,3.485784423828125,1.1533184051513672,-3.6160225868225098,0.46285325288772583
1746620297313590500,3.502590576171875,1.089186668395996,-3.5693359375,0.4595135450363159
1746620297330400500,3.519400390625,1.0178308486938477,-3.535728693008423,0.5227438807487488
1746620297347207200,3.536207275390625,1.0264263153076172,-3.4780006408691406,0.5552407503128052
1746620297364008000,3.553008056640625,1.0123186111450195,-3.4674816131591797,0.5883132815361023
1746620297380811000,3.56981103515625,0.9924373626708984,-3.45221209526062,0.5386167764663696
1746620297397633500,3.586633544921875,1.0111503601074219,-3.431971311569214,0.48019322752952576
1746620297414428200,3.60342822265625,1.0131654739379883,-3.491520881652832,0.47342124581336975
1746620297431238000,3.62023779296875,0.9875707626342773,-3.4783194065093994,0.4608902931213379
1746620297448057600,3.6370576171875,0.9393701553344727,-3.444826364517212,0.49823492765426636
1746620297464867300,3.653867431640625,0.8587703704833984,-3.450650215148926,0.5404614210128784
1746620297481674500,3.670674560546875,0.7866220474243164,-3.477398157119751,0.5354263782501221
1746620297498482400,3.687482421875,0.7218790054321289,-3.5097498893737793,0.5450663566589355
1746620297515297300,3.70429736328125,0.7773094177246094,-3.5106587409973145,0.5157467126846313
1746620297532115000,3.721114990234375,0.8601322174072266,-3.521045207977295,0.5537838935852051
1746620297548921900,3.737921875,0.9075098037719727,-3.550961494445801,0.5597615242004395
1746620297565731600,3.754731689453125,0.9695615768432617,-3.561769485473633,0.4932565689086914
1746620297582539000,3.7715390625,1.066680908203125,-3.5580077171325684,0.46979761123657227
1746620297599348500,3.788348388671875,1.044194221496582,-3.5072100162506104,0.5741124749183655
1746620297616156200,3.80515625,0.9331531524658203,-3.463383913040161,0.5881325006484985
1746620297632954400,3.821954345703125,0.7647609710693359,-3.41996431350708,0.5143334865570068
1746620297649770800,3.838770751953125,0.6952056884765625,-3.395167350769043,0.48668336868286133
1746620297666583600,3.85558349609375,0.7802200317382812,-3.3736162185668945,0.49564045667648315
1746620297683389700,3.8723896484375,0.8462409973144531,-3.351511240005493,0.558218240737915
1746620297700195300,3.8891953125,0.8557729721069336,-3.321922540664673,0.5483905673027039
1746620297716993000,3.905992919921875,0.8707122802734375,-3.308337926864624,0.5411005616188049
1746620297733803800,3.9228037109375,0.8953742980957031,-3.375034809112549,0.5528525114059448
1746620297750607600,3.939607666015625,0.9614191055297852,-3.3900649547576904,0.48519378900527954
1746620297767419000,3.9564189453125,1.0172462463378906,-3.396169662475586,0.4531416893005371
1746620297784216800,3.973216796875,1.0321235656738281,-3.3665246963500977,0.45169389247894287
1746620297801035800,3.990035888671875,0.9402332305908203,-3.354346990585327,0.5025293827056885
1746620297817840000,4.006840087890625,0.8347911834716797,-3.3177566528320312,0.4921284317970276
1746620297834652700,4.023652587890625,0.7398080825805664,-3.3098864555358887,0.4394945502281189
1746620297851463200,4.040463134765625,0.6672639846801758,-3.3031723499298096,0.3891538083553314
1746620297868263700,4.057263671875,0.6441431045532227,-3.2762978076934814,0.38120031356811523
1746620297885082000,4.07408203125,0.7241601943969727,-3.234233856201172,0.41768622398376465
1746620297901886500,4.090886474609375,0.8981189727783203,-3.2500696182250977,0.465304970741272
1746620297918693600,4.107693603515625,1.0443229675292969,-3.2894394397735596,0.4834985136985779
1746620297935503000,4.124503173828125,1.0534601211547852,-3.310215473175049,0.46597224473953247
1746620297952308000,4.141307861328125,0.9647493362426758,-3.303961753845215,0.4441581964492798
1746620297969122800,4.158122802734375,0.8920488357543945,-3.2778608798980713,0.4549713730812073
1746620297985913900,4.174913818359375,0.8538484573364258,-3.28275465965271,0.48883455991744995
1746620298002736400,4.191736328125,0.8523988723754883,-3.2621631622314453,0.5000067949295044
1746620298019561500,4.2085615234375,0.7987155914306641,-3.287383794784546,0.5503325462341309
1746620298036363800,4.22536376953125,0.7391605377197266,-3.2673330307006836,0.5129542350769043
1746620298053178600,4.2421787109375,0.7033796310424805,-3.219979763031006,0.4447207748889923
1746620298069979600,4.258979736328125,0.6027565002441406,-3.2152414321899414,0.527631402015686
1746620298086795300,4.275795166015625,0.5395050048828125,-3.1813220977783203,0.5624308586120605
1746620298103576300,4.292576416015625,0.5083532333374023,-3.157135009765625,0.5263245701789856
1746620298120414200,4.309414306640625,0.4843635559082031,-3.1510672569274902,0.5105019807815552
1746620298137211400,4.32621142578125,0.519129753112793,-3.1473450660705566,0.47007060050964355
1746620298154002700,4.343002685546875,0.6285810470581055,-3.0950284004211426,0.4000202417373657
1746620298170838500,4.359838623046875,0.7623414993286133,-3.11497163772583,0.3784776031970978
1746620298187645000,4.37664501953125,0.8542766571044922,-3.1184661388397217,0.3349343538284302
1746620298204435000,4.39343505859375,0.871119499206543,-3.1461422443389893,0.3450632691383362
1746620298221259000,4.410259033203125,0.9552745819091797,-3.1261653900146484,0.3164637088775635
1746620298238069000,4.427069091796875,1.0345392227172852,-3.1625967025756836,0.30144405364990234
1746620298254875600,4.443875732421875,1.0336380004882812,-3.195035934448242,0.2947128117084503
1746620298271664400,4.460664306640625,1.0422592163085938,-3.1584086418151855,0.24466967582702637
1746620298288478000,4.47747802734375,1.0296964645385742,-3.137162208557129,0.29528698325157166
1746620298305273000,4.494273193359375,1.0008058547973633,-3.131911516189575,0.3712892532348633
1746620298322083600,4.51108349609375,0.9347038269042969,-3.135019063949585,0.36411720514297485
1746620298338891800,4.527891845703125,0.8499717712402344,-3.1012184619903564,0.31917399168014526
1746620298355712500,4.54471240234375,0.7141904830932617,-3.0841991901397705,0.28749510645866394
1746620298372513300,4.56151318359375,0.5604228973388672,-3.088473320007324,0.32539767026901245
1746620298389332000,4.57833203125,0.41020965576171875,-3.0243632793426514,0.3499763011932373
1746620298406138400,4.595138427734375,0.3678722381591797,-3.0228095054626465,0.3440247178077698
1746620298422946000,4.611946044921875,0.41365623474121094,-3.0851335525512695,0.3040514290332794
1746620298439739100,4.6287392578125,0.5142965316772461,-3.1396491527557373,0.22393012046813965
1746620298456566000,4.64556591796875,0.6219425201416016,-3.102501153945923,0.10095551609992981
1746620298473372200,4.6623720703125,0.7574062347412109,-3.1064562797546387,0.0520060658454895
1746620298490177300,4.67917724609375,0.8470554351806641,-3.142730474472046,0.08614274859428406
1746620298506991600,4.69599169921875,0.8907690048217773,-3.145571708679199,0.1953105926513672
1746620298523796700,4.712796630859375,0.8739891052246094,-3.0749378204345703,0.28057047724723816
1746620298540586000,4.7295859375,0.7270050048828125,-3.0028903484344482,0.4234156608581543
1746620298557427500,4.746427490234375,0.6513500213623047,-2.945122718811035,0.4467708468437195
1746620298574220800,4.763220703125,0.6547622680664062,-2.9444081783294678,0.39090943336486816
1746620298591043800,4.7800439453125,0.7049551010131836,-2.9938840866088867,0.3758619427680969
1746620298607867400,4.796867431640625,0.7525625228881836,-2.976768970489502,0.32419854402542114
1746620298624644400,4.813644287109375,0.795654296875,-2.907691240310669,0.3103959560394287
1746620298641453800,4.830453857421875,0.7930231094360352,-2.9020166397094727,0.37589776515960693
1746620298658277600,4.847277587890625,0.7695894241333008,-2.9448959827423096,0.43598318099975586
1746620298675070500,4.864070556640625,0.6893119812011719,-2.9946789741516113,0.4501287043094635
1746620298691894800,4.880894775390625,0.5888195037841797,-3.0049562454223633,0.3831092119216919
1746620298708704000,4.8977041015625,0.5673274993896484,-2.995762586593628,0.326202929019928
1746620298725511000,4.914510986328125,0.5782499313354492,-2.963705062866211,0.3380070924758911
1746620298742314800,4.931314697265625,0.6077442169189453,-2.9356398582458496,0.40756064653396606
1746620298759095000,4.948094970703125,0.6375856399536133,-2.889775037765503,0.48785915970802307
1746620298775924000,4.964924072265625,0.6629114151000977,-2.863773822784424,0.4813406467437744
1746620298792731000,4.98173095703125,0.6745166778564453,-2.872309923171997,0.4730803966522217
1746620298809540400,4.998540283203125,0.6150655746459961,-2.8491928577423096,0.46051549911499023
1746620298826347800,5.01534765625,0.5123977661132812,-2.7837257385253906,0.4273468255996704
1746620298843146200,5.032146240234375,0.4339866638183594,-2.7235684394836426,0.437470406293869
1746620298859959800,5.048959716796875,0.4350900650024414,-2.7258987426757812,0.4643522799015045
1746620298876777200,5.065777099609375,0.5105314254760742,-2.781398296356201,0.4393521249294281
1746620298893578500,5.08257861328125,0.654388427734375,-2.8245508670806885,0.3476945161819458
1746620298910391300,5.099391357421875,0.7746458053588867,-2.8153533935546875,0.29472553730010986
1746620298927201300,5.116201171875,0.8581781387329102,-2.796023368835449,0.31139954924583435
1746620298943990000,5.132989990234375,0.8444328308105469,-2.8130626678466797,0.3725612759590149
1746620298960812300,5.149812255859375,0.7708625793457031,-2.846445322036743,0.4151122570037842
1746620298977617400,5.166617431640625,0.6220760345458984,-2.826857089996338,0.35287314653396606
1746620298994417400,5.18341748046875,0.4247608184814453,-2.787390947341919,0.25237980484962463
1746620299011243300,5.2002431640625,0.3356819152832031,-2.775458812713623,0.25787705183029175
1746620299028066300,5.21706640625,0.44995975494384766,-2.812528610229492,0.26690465211868286
1746620299044875300,5.233875244140625,0.5621938705444336,-2.807420253753662,0.28552138805389404
1746620299061673000,5.2506728515625,0.5883998870849609,-2.788552761077881,0.29176679253578186
1746620299078474800,5.267474853515625,0.6056423187255859,-2.7625088691711426,0.22702696919441223
1746620299095296500,5.284296630859375,0.5534772872924805,-2.7423722743988037,0.22484992444515228
1746620299112106000,5.30110595703125,0.4883594512939453,-2.7389941215515137,0.32040128111839294
1746620299128913000,5.317912841796875,0.4701690673828125,-2.7284722328186035,0.37085604667663574
1746620299145722400,5.334722412109375,0.5314598083496094,-2.7416024208068848,0.396028995513916
1746620299162530000,5.351530029296875,0.6293926239013672,-2.73701810836792,0.3097934126853943
1746620299179323400,5.368323486328125,0.6608943939208984,-2.714181900024414,0.2662131190299988
1746620299196133600,5.385133544921875,0.5373401641845703,-2.692160129547119,0.3047814667224884
1746620299212957000,5.40195703125,0.475799560546875,-2.611574649810791,0.33656954765319824
1746620299229764900,5.418764892578125,0.4392862319946289,-2.6535725593566895,0.4188990294933319
1746620299246555400,5.435555419921875,0.5898628234863281,-2.6296589374542236,0.39777806401252747
1746620299263363300,5.45236328125,0.7125434875488281,-2.7035727500915527,0.35417553782463074
1746620299280176400,5.46917626953125,0.7400035858154297,-2.6814374923706055,0.2451370358467102
1746620299296984000,5.485984130859375,0.7513437271118164,-2.6072723865509033,0.21241961419582367
1746620299313797000,5.502797119140625,0.6618967056274414,-2.559556245803833,0.24075473845005035
1746620299330600700,5.5196005859375,0.48395252227783203,-2.557539939880371,0.3091898560523987
1746620299347410200,5.53641015625,0.41401195526123047,-2.4711689949035645,0.3578801453113556
1746620299364204300,5.553204345703125,0.3339967727661133,-2.512078285217285,0.3739790916442871
1746620299381027000,5.570027099609375,0.3109264373779297,-2.5128817558288574,0.2926046848297119
1746620299397834200,5.586834228515625,0.3526420593261719,-2.482150077819824,0.28468698263168335
1746620299414641200,5.60364111328125,0.5048551559448242,-2.4859726428985596,0.32901284098625183
1746620299431451400,5.620451416015625,0.7613439559936523,-2.469975233078003,0.28012531995773315
