time,seconds_elapsed,z,y,x
1746620293884672300,0.07367236328125,9.830313682556152,1.2550355195999146,-0.020937198773026466
1746620293901491700,0.09049169921875,9.902098655700684,1.2460623979568481,-0.054436713457107544
1746620293918295300,0.10729541015625,9.81655502319336,1.2167502641677856,-0.054436713457107544
1746620293935105300,0.124105224609375,9.787242889404297,1.1982059478759766,-0.13100704550743103
1746620293951912000,0.140911865234375,9.81535816192627,1.2035897970199585,-0.26979073882102966
1746620293968729600,0.1577294921875,9.871589660644531,1.2664014101028442,-0.364905446767807
1746620293985529000,0.174529052734375,9.829116821289062,1.2424731254577637,-0.3314059376716614
1746620294002355700,0.191355712890625,9.695717811584473,1.2077772617340088,-0.259621262550354
1746620294019159000,0.208158935546875,9.590433120727539,1.231107234954834,-0.27337998151779175
1746620294035943400,0.224943359375,9.5862455368042,1.1784651279449463,-0.32662028074264526
1746620294052776000,0.24177587890625,9.510273933410645,1.0923235416412354,-0.34576287865638733
1746620294069560600,0.258560546875,9.395418167114258,1.0773683786392212,-0.4169493317604065
1746620294086393300,0.275393310546875,9.266205787658691,1.0773683786392212,-0.48813581466674805
1746620294103205000,0.292205078125,9.323633193969727,1.0869396924972534,-0.4977070987224579
1746620294120005400,0.30900537109375,9.577272415161133,1.0408778190612793,-0.4893322288990021
1746620294136829700,0.32582958984375,9.678967475891113,0.9308080077171326,-0.4043870270252228
1746620294153626000,0.342626220703125,9.697511672973633,0.9451649188995361,-0.39960137009620667
1746620294170410500,0.359410400390625,9.76989459991455,0.9260223507881165,-0.29431718587875366
1746620294187247900,0.376247802734375,9.804591178894043,0.882951557636261,-0.20877377688884735
1746620294204068600,0.393068603515625,9.879964828491211,0.8787640929222107,-0.3188436031341553
1746620294220859400,0.409859375,9.950552940368652,0.9326026439666748,-0.4289134442806244
1746620294237664800,0.426664794921875,9.965508460998535,0.9936196208000183,-0.23270200192928314
1746620294254464500,0.443464599609375,9.975677490234375,1.0929217338562012,0.025722842663526535
1746620294271270400,0.4602705078125,9.970891952514648,1.0971091985702515,0.14057832956314087
1746620294288072700,0.47707275390625,9.744770050048828,1.225723385810852,0.012562318705022335
1746620294304911000,0.4939111328125,9.422935485839844,1.34476637840271,-0.22971096634864807
1746620294321710000,0.5107099609375,9.148957252502441,1.4111671447753906,-0.4007977843284607
1746620294338485800,0.52748583984375,8.873184204101562,0.9918249845504761,-0.053240302950143814
1746620294355299600,0.544299560546875,9.332008361816406,1.5385849475860596,-0.8255237936973572
1746620294372122600,0.56112255859375,9.512067794799805,1.2233306169509888,-0.7316055297851562
1746620294388929800,0.5779296875,9.714859962463379,1.0845468044281006,-0.5276173949241638
1746620294405740300,0.594740234375,9.940383911132812,1.1186445951461792,-0.2991028428077698
1746620294422546700,0.611546630859375,9.883553504943848,1.1359925270080566,-0.0933200865983963
1746620294439356200,0.628356201171875,9.720842361450195,1.220937728881836,-0.01136590726673603
1746620294456163800,0.645163818359375,9.64965534210205,1.1826525926589966,-0.03529413416981697
1746620294472973300,0.661973388671875,9.731011390686035,1.1593226194381714,-0.08793623000383377
1746620294489781500,0.678781494140625,9.803394317626953,0.9876375198364258,-0.13698910176753998
1746620294506605000,0.69560498046875,9.78963565826416,0.9589236974716187,-0.16091732680797577
1746620294523406800,0.71240673828125,9.731609344482422,1.0253244638442993,-0.11246266216039658
1746620294540221000,0.729220947265625,9.717252731323242,1.0875378847122192,-0.10289137065410614
1746620294557031400,0.746031494140625,9.693324089050293,1.0396814346313477,-0.12681959569454193
1746620294573836800,0.7628369140625,9.70229721069336,1.0217353105545044,-0.32243284583091736
1746620294590644200,0.779644287109375,9.769296646118164,0.9888339638710022,-0.3613162338733673
1746620294607454500,0.796454345703125,9.865608215332031,0.9122636318206787,-0.2709871530532837
1746620294624244200,0.813244140625,9.919445991516113,0.8500502705574036,-0.1950150430202484
1746620294641070600,0.830070556640625,9.967302322387695,0.8548358678817749,-0.1902294009923935
1746620294657878500,0.84687841796875,9.966704368591309,0.8841479420661926,-0.22851456701755524
1746620294674675700,0.86367578125,9.985847473144531,0.8883354067802429,-0.17587246000766754
1746620294691494400,0.880494384765625,9.990633010864258,0.8602197170257568,-0.1902294009923935
1746620294708304600,0.8973046875,9.990633010864258,0.8273184299468994,-0.3242274820804596
1746620294725111600,0.914111572265625,9.880562782287598,0.8171489238739014,-0.36191442608833313
1746620294741921000,0.930921142578125,9.708877563476562,0.8398807644844055,-0.29012975096702576
1746620294758728700,0.947728759765625,9.655637741088867,0.9343972206115723,-0.21774685382843018
1746620294775540700,0.964540771484375,9.68494987487793,0.8679963946342468,-0.21355941891670227
1746620294792348400,0.981348388671875,9.68076229095459,0.8057830333709717,-0.21355941891670227
1746620294809159200,0.9981591796875,9.684351921081543,0.8398807644844055,-0.3517449200153351
1746620294825944300,1.0149443359375,9.660423278808594,0.8733802437782288,-0.36610186100006104
1746620294842744300,1.031744384765625,9.594022750854492,0.8817551732063293,-0.26081767678260803
1746620294859565000,1.04856494140625,9.570094108581543,0.9385846853256226,-0.17946170270442963
1746620294876374800,1.065374755859375,9.513264656066895,0.9427721500396729,-0.040677983313798904
1746620294893192000,1.08219189453125,9.584450721740723,1.0001999139785767,-0.016749758273363113
1746620294909986300,1.098986328125,9.690333366394043,0.9433703422546387,0.049651071429252625
1746620294926801700,1.1158017578125,9.796216011047363,0.890728235244751,0.11126625537872314
1746620294943597300,1.132597412109375,9.78664493560791,0.9290133714675903,0.13519448041915894
1746620294960415000,1.1494150390625,9.762118339538574,0.9577272534370422,0.08315058797597885
1746620294977224700,1.166224609375,9.800403594970703,0.9625129103660583,0.05922235921025276
1746620294994040000,1.1830400390625,9.896116256713867,0.9631111025810242,0.11126625537872314
1746620295010862000,1.199862060546875,10.010972023010254,0.9918249845504761,0.23030917346477509
1746620295027662600,1.21666259765625,9.958329200744629,1.0247262716293335,0.29790642857551575
1746620295044455400,1.233455322265625,9.786046028137207,1.0480563640594482,0.2602194547653198
1746620295061275400,1.250275390625,9.618548393249512,1.033101201057434,0.14117653667926788
1746620295078093300,1.26709326171875,9.494122505187988,1.0085747241973877,0.08374879509210587
1746620295094896400,1.283896484375,9.641280174255371,1.1096714735031128,0.10767702013254166
1746620295111705300,1.300705322265625,9.929018020629883,1.0199406147003174,0.21655045449733734
1746620295128513000,1.317512939453125,10.074381828308105,0.8817551732063293,0.3158525824546814
1746620295145322500,1.334322509765625,10.078569412231445,0.8967102766036987,0.1818545162677765
1746620295162129200,1.351129150390625,10.0073823928833,0.8201399445533752,0.17228323221206665
1746620295178939400,1.367939453125,9.964909553527832,0.7621139883995056,0.1866401731967926
1746620295195742200,1.3847421875,9.845269203186035,0.8093722462654114,0.1537388563156128
1746620295212556300,1.401556396484375,9.691530227661133,0.8662018179893494,0.16390834748744965
1746620295229367300,1.4183671875,9.591629981994629,0.8841479420661926,0.22612173855304718
1746620295246172400,1.43517236328125,9.624530792236328,0.9134600162506104,0.21236300468444824
1746620295262980400,1.45198046875,9.634101867675781,0.9134600162506104,0.2027917206287384
1746620295279785200,1.46878515625,9.619745254516602,0.8895317912101746,0.1543370634317398
1746620295296583200,1.485583251953125,9.543174743652344,0.8943174481391907,0.08793623000383377
1746620295313392400,1.502392333984375,9.494720458984375,0.9326026439666748,0.064606212079525
1746620295330200800,1.519200927734375,9.519247055053711,0.9032905697822571,0.11665010452270508
1746620295347008300,1.53600830078125,9.629914283752441,0.841675341129303,0.13040883839130402
1746620295363816400,1.55281640625,9.730413436889648,0.8039883971214294,0.17288143932819366
1746620295380612600,1.569612548828125,9.868598937988281,0.8051848411560059,0.13938191533088684
1746620295397433300,1.586433349609375,9.959526062011719,0.8057830333709717,0.1339980661869049
1746620295414227000,1.60322705078125,9.916455268859863,0.8434699773788452,0.17288143932819366
1746620295431051000,1.620051025390625,9.787242889404297,0.9188438653945923,0.21176479756832123
1746620295447860700,1.63686083984375,9.64367389678955,0.9702895879745483,0.2554338276386261
1746620295464664000,1.6536640625,9.552745819091797,1.0079765319824219,0.29850462079048157
1746620295481479000,1.67047900390625,9.57607650756836,1.036690354347229,0.3128615617752075
1746620295498284300,1.6872841796875,9.686145782470703,1.042074203491211,0.3415754437446594
1746620295515110400,1.7041103515625,9.777671813964844,0.9756734371185303,0.32662028074264526
1746620295531909000,1.7209091796875,9.853045463562012,0.9960124492645264,0.21655045449733734
1746620295548727800,1.737727783203125,9.872187614440918,0.9960124492645264,0.16390834748744965
1746620295565514200,1.75451416015625,9.786046028137207,1.0049854516983032,0.21176479756832123
1746620295582339600,1.771339599609375,9.675976753234863,1.0426725149154663,0.24107688665390015
1746620295599142400,1.788142333984375,9.523433685302734,1.074975609779358,0.275174617767334
1746620295615957000,1.80495703125,9.485149383544922,1.0791629552841187,0.29431718587875366
1746620295632760300,1.82176025390625,9.595218658447266,1.0654042959213257,0.3320041298866272
1746620295649578200,1.838578125,9.672985076904297,0.9840483069419861,0.4462614357471466
1746620295666393300,1.855393310546875,9.806385040283203,0.9900303483009338,0.364905446767807
1746620295683194600,1.872194580078125,9.777671813964844,0.9708877801895142,0.3314059376716614
1746620295699998700,1.888998779296875,9.67238712310791,0.9798609018325806,0.37447673082351685
1746620295716811300,1.905811279296875,9.662816047668457,1.0031908750534058,0.3696911036968231
1746620295733619700,1.92261962890625,9.743574142456055,1.0235298871994019,0.3074777126312256
1746620295750416100,1.939416015625,9.701101303100586,0.9702895879745483,0.3170489966869354
1746620295767237600,1.956237548828125,9.69093132019043,1.0133603811264038,0.2841476798057556
1746620295784064800,1.973064697265625,9.719645500183105,1.028315544128418,0.3032902777194977
1746620295800838000,1.989837890625,9.720243453979492,1.0133603811264038,0.3936193287372589
1746620295817634800,2.006634765625,9.725028991699219,0.9990034699440002,0.3696911036968231
1746620295834441000,2.02344091796875,9.79681396484375,0.9613165259361267,0.29790642857551575
1746620295851261000,2.040260986328125,9.887741088867188,0.890728235244751,0.2590230405330658
1746620295868063700,2.057063720703125,9.978668212890625,0.8811569213867188,0.2871387302875519
1746620295884882200,2.073882080078125,10.002596855163574,0.8859425783157349,0.3445664644241333
1746620295901681400,2.090681396484375,9.897313117980957,0.9332008361816406,0.3690928816795349
1746620295918497300,2.107497314453125,9.806385040283203,0.9469595551490784,0.3164508044719696
1746620295935285200,2.12428515625,9.748957633972168,0.9469595551490784,0.2787638306617737
1746620295952111600,2.141111572265625,9.681958198547363,0.9278169870376587,0.2548356056213379
1746620295968919800,2.157919921875,9.69631576538086,0.908674418926239,0.21655045449733734
1746620295985726000,2.174725830078125,9.715457916259766,0.8757730722427368,0.17347964644432068
1746620296002535200,2.19153515625,9.81117057800293,0.8524430394172668,0.16809579730033875
1746620296019331800,2.208331787109375,9.93559741973877,0.8482556343078613,0.19202402234077454
1746620296036138800,2.225138671875,9.988838195800781,0.8380861282348633,0.3158525824546814
1746620296052961500,2.24196142578125,9.932008743286133,0.8470591902732849,0.4211367964744568
1746620296069757700,2.2587578125,9.89432144165039,0.841675341129303,0.4977070987224579
1746620296086599000,2.275598876953125,9.888937950134277,0.8703892230987549,0.46420758962631226
1746620296103382800,2.2923828125,9.860223770141602,0.8703892230987549,0.40677985548973083
1746620296120212500,2.30921240234375,9.79801082611084,0.841675341129303,0.3355933725833893
1746620296136994800,2.325994873046875,9.7064847946167,0.8512466549873352,0.2638086974620819
1746620296153826000,2.342825927734375,9.614959716796875,0.9511470198631287,0.25064817070961
1746620296170632000,2.3596318359375,9.433703422546387,0.9876375198364258,0.35114672780036926
1746620296187443200,2.376443115234375,9.394820213317871,1.064207911491394,0.3852444589138031
1746620296204234000,2.39323388671875,9.424132347106934,1.0402796268463135,0.42352959513664246
1746620296221059300,2.410059326171875,9.419346809387207,1.0402796268463135,0.44745782017707825
1746620296237849300,2.426849365234375,9.471389770507812,1.0929217338562012,0.39481574296951294
1746620296254655200,2.4436552734375,9.657432556152344,1.0660024881362915,0.32243284583091736
1746620296271491300,2.4604912109375,9.854242324829102,0.9523434042930603,0.30209386348724365
1746620296288294400,2.47729443359375,9.949954986572266,0.8715856671333313,0.30628129839897156
1746620296305100000,2.49410009765625,9.993025779724121,0.8668000102043152,0.2919243574142456
1746620296321892000,2.51089208984375,9.955338478088379,0.8524430394172668,0.30149564146995544
1746620296338699000,2.527698974609375,9.892526626586914,0.8668000102043152,0.25423741340637207
1746620296355515400,2.544515380859375,9.80100154876709,0.9044869542121887,0.16869398951530457
1746620296372303400,2.561303466796875,9.686145782470703,0.9332008361816406,0.1501496136188507
1746620296389129500,2.57812939453125,9.604789733886719,0.9708877801895142,0.1501496136188507
1746620296405936600,2.5949365234375,9.547362327575684,0.9990034699440002,0.1746760457754135
1746620296422746400,2.611746337890625,9.484550476074219,1.0372886657714844,0.15074782073497772
1746620296439553300,2.62855322265625,9.412766456604004,1.0654042959213257,0.18484555184841156
1746620296456362800,2.64536279296875,9.44626522064209,1.103689432144165,0.1944168359041214
1746620296473157400,2.662157470703125,9.570094108581543,1.0755738019943237,0.15553347766399384
1746620296489982000,2.67898193359375,9.708877563476562,1.0432707071304321,0.12622138857841492
1746620296506807000,2.69580712890625,9.90568733215332,0.9822536706924438,0.13519448041915894
1746620296523610000,2.712610107421875,10.030712127685547,0.9104689955711365,0.18723836541175842
1746620296540414000,2.7294140625,10.097113609313965,0.9110672473907471,0.1579262912273407
1746620296557199400,2.746199462890625,10.030712127685547,0.8871390223503113,0.13938191533088684
1746620296574000000,2.763000244140625,9.986445426940918,0.9684949517250061,0.11605189740657806
1746620296590827000,2.779826904296875,9.900901794433594,0.9768698215484619,0.19262222945690155
1746620296607640800,2.796640869140625,9.791430473327637,0.9858429431915283,0.21655045449733734
1746620296624461600,2.813461669921875,9.723235130310059,1.0241280794143677,0.12143574655056
1746620296641251000,2.8302509765625,9.594620704650879,1.033101201057434,0.12681959569454193
1746620296658066700,2.847066650390625,9.470193862915039,1.0558329820632935,0.1986042857170105
1746620296674874600,2.86387451171875,9.422935485839844,1.0648061037063599,0.23210379481315613
1746620296691690200,2.880690185546875,9.456435203552246,1.0558329820632935,0.23210379481315613
1746620296708506000,2.897506103515625,9.55214786529541,0.9990034699440002,0.16031911969184875
1746620296725311500,2.9143115234375,9.685547828674316,1.0001999139785767,0.08793623000383377
1746620296742118100,2.9311181640625,9.728618621826172,1.0049854516983032,0.10229317098855972
1746620296758928100,2.94792822265625,9.733404159545898,0.9906286001205444,0.16450655460357666
1746620296775736800,2.96473681640625,9.795618057250977,0.9762716293334961,0.17347964644432068
1746620296792544500,2.98154443359375,9.863214492797852,0.9290133714675903,0.2021935135126114
1746620296809335300,2.998335205078125,9.906285285949707,0.9200403094291687,0.14416755735874176
1746620296826148400,3.0151484375,9.920044898986816,0.9158528447151184,0.0729810893535614
1746620296842955300,3.031955322265625,9.848259925842285,0.9343972206115723,0.06340979784727097
1746620296859762200,3.04876220703125,9.728618621826172,0.9768698215484619,0.07836493849754333
1746620296876574700,3.06557470703125,9.641879081726074,1.0049854516983032,0.059820566326379776
1746620296893382000,3.0823818359375,9.618548393249512,0.9906286001205444,0.064606212079525
1746620296910185700,3.099185791015625,9.68494987487793,1.0001999139785767,0.030508488416671753
1746620296927001900,3.116001953125,9.728618621826172,0.9768698215484619,0.06400800496339798
1746620296943806000,3.132805908203125,9.765707015991211,1.0061819553375244,-0.0077766734175384045
1746620296960615400,3.149615478515625,9.747162818908691,0.9912267923355103,0.020937198773026466
1746620296977422300,3.16642236328125,9.733404159545898,0.9433703422546387,0.030508488416671753
1746620296994218800,3.18321875,9.738189697265625,0.9194421172142029,0.020937198773026466
1746620297011039500,3.20003955078125,9.81535816192627,0.8578268885612488,0.0011964113218709826
1746620297027849200,3.21684912109375,9.872786521911621,0.7962117195129395,-0.004187439568340778
1746620297044655900,3.23365576171875,9.940383911132812,0.7537391185760498,-0.03290131315588951
1746620297061465600,3.250465576171875,9.940383911132812,0.7100701332092285,-0.014356935396790504
1746620297078258200,3.267258056640625,9.91286563873291,0.6526423692703247,0.014356935396790504
1746620297095086000,3.284086181640625,9.893125534057617,0.666999340057373,-0.062213387340307236
1746620297111889700,3.3008896484375,9.77826976776123,0.6909275650978088,-0.08075776696205139
1746620297128699400,3.317699462890625,9.644271850585938,0.737587571144104,-0.0323031060397625
1746620297145506300,3.33450634765625,9.591629981994629,0.7704889178276062,0.010767702013254166
1746620297162316500,3.351316650390625,9.57188892364502,0.8135597109794617,0.006580262444913387
1746620297179140000,3.36814013671875,9.581459999084473,0.8087740540504456,0.025722842663526535
1746620297195952600,3.38495263671875,9.605388641357422,0.8039883971214294,-0.012562318705022335
1746620297212754400,3.40175439453125,9.600603103637695,0.7854440212249756,-0.06041877344250679
1746620297229564000,3.41856396484375,9.67238712310791,0.7902296781539917,-0.06580262631177902
1746620297246340400,3.43534033203125,9.749555587768555,0.747757077217102,-0.008973085321485996
1746620297263166500,3.45216650390625,9.863813400268555,0.7435696125030518,0.0005982056609354913
1746620297279972900,3.468972900390625,9.959526062011719,0.7010970115661621,-0.02871387079358101
1746620297296784400,3.485784423828125,9.945169448852539,0.7010970115661621,-0.09092725813388824
1746620297313590500,3.502590576171875,9.8871431350708,0.7345965504646301,-0.09990034252405167
1746620297330400500,3.519400390625,9.8207426071167,0.7579265832901001,-0.03768695518374443
1746620297347207200,3.536207275390625,9.834501266479492,0.8051848411560059,-0.004187439568340778
1746620297364008000,3.553008056640625,9.825528144836426,0.8051848411560059,0.029312077909708023
1746620297380811000,3.56981103515625,9.810572624206543,0.8099704384803772,-0.02273181453347206
1746620297397633500,3.586633544921875,9.833903312683105,0.8201399445533752,-0.0849452018737793
1746620297414428200,3.60342822265625,9.839286804199219,0.753140926361084,-0.09511470049619675
1746620297431238000,3.62023779296875,9.81535816192627,0.7627122402191162,-0.10887342691421509
1746620297448057600,3.6370576171875,9.767501831054688,0.7956135272979736,-0.07058826833963394
1746620297464867300,3.653867431640625,9.686744689941406,0.7902296781539917,-0.02751746028661728
1746620297481674500,3.670674560546875,9.615557670593262,0.7615157961845398,-0.0323031060397625
1746620297498482400,3.687482421875,9.553942680358887,0.7226324677467346,-0.02273181453347206
1746620297515297300,3.70429736328125,9.615557670593262,0.7088736891746521,-0.05144568532705307
1746620297532115000,3.721114990234375,9.707083702087402,0.6801598072052002,-0.01375873014330864
1746620297548921900,3.737921875,9.764511108398438,0.6281159520149231,-0.014356935396790504
1746620297565731600,3.754731689453125,9.836296081542969,0.5952146053314209,-0.09092725813388824
1746620297582539000,3.7715390625,9.9409818649292,0.582054078578949,-0.11964113265275955
1746620297599348500,3.788348388671875,9.92243766784668,0.6245267391204834,-0.014356935396790504
1746620297616156200,3.80515625,9.81236743927002,0.6664010882377625,0.0005982056609354913
1746620297632954400,3.821954345703125,9.644271850585938,0.7088736891746521,-0.07537391036748886
1746620297649770800,3.838770751953125,9.577272415161133,0.7280163168907166,-0.10408778488636017
1746620297666583600,3.85558349609375,9.667601585388184,0.7381857633590698,-0.09451649338006973
1746620297683389700,3.8723896484375,9.739386558532715,0.747757077217102,-0.0323031060397625
1746620297700195300,3.8891953125,9.753743171691895,0.7668996453285217,-0.04187439754605293
1746620297716993000,3.905992919921875,9.772886276245117,0.7716853022575378,-0.04666004329919815
1746620297733803800,3.9228037109375,9.80219841003418,0.6951149702072144,-0.03290131315588951
1746620297750607600,3.939607666015625,9.873982429504395,0.6675975322723389,-0.09990034252405167
1746620297767419000,3.9564189453125,9.93559741973877,0.6484549641609192,-0.1339980661869049
1746620297784216800,3.973216796875,9.954740524291992,0.6681957244873047,-0.13878370821475983
1746620297801035800,3.990035888671875,9.864411354064941,0.6765705943107605,-0.09032905846834183
1746620297817840000,4.006840087890625,9.758528709411621,0.714257538318634,-0.09990034252405167
1746620297834652700,4.023652587890625,9.662816047668457,0.7238288521766663,-0.15194423496723175
1746620297851463200,4.040463134765625,9.591031074523926,0.7286145091056824,-0.20398813486099243
1746620297868263700,4.057263671875,9.571290969848633,0.747757077217102,-0.21355941891670227
1746620297885082000,4.07408203125,9.657432556152344,0.776470959186554,-0.17527425289154053
1746620297901886500,4.090886474609375,9.839286804199219,0.7435696125030518,-0.12382857501506805
1746620297918693600,4.107693603515625,9.993025779724121,0.6873382925987244,-0.1052841991186142
1746620297935503000,4.124503173828125,10.0073823928833,0.6538388133049011,-0.12921242415905
1746620297952308000,4.141307861328125,9.92124080657959,0.6532405614852905,-0.1579262912273407
1746620297969122800,4.158122802734375,9.849455833435059,0.6771687865257263,-0.14775680005550385
1746620297985913900,4.174913818359375,9.811769485473633,0.6717849373817444,-0.1094716340303421
1746620298002736400,4.191736328125,9.81117057800293,0.6909275650978088,-0.09511470049619675
1746620298019561500,4.2085615234375,9.759127616882324,0.6616154313087463,-0.047258246690034866
1746620298036363800,4.22536376953125,9.701699256896973,0.6759724020957947,-0.09032905846834183
1746620298053178600,4.2421787109375,9.667601585388184,0.7190431952476501,-0.16151553392410278
1746620298069979600,4.258979736328125,9.56770133972168,0.7226324677467346,-0.07537391036748886
1746620298086795300,4.275795166015625,9.505488395690918,0.755533754825592,-0.03170489892363548
1746620298103576300,4.292576416015625,9.476774215698242,0.7752745151519775,-0.06041877344250679
1746620298120414200,4.309414306640625,9.45763111114502,0.7704889178276062,-0.07477571070194244
1746620298137211400,4.32621142578125,9.500103950500488,0.7561319470405579,-0.1178465187549591
1746620298154002700,4.343002685546875,9.619147300720215,0.7860422134399414,-0.18963119387626648
1746620298170838500,4.359838623046875,9.762716293334961,0.7435696125030518,-0.20937198400497437
1746620298187645000,4.37664501953125,9.863214492797852,0.7208378314971924,-0.2476571500301361
1746620298204435000,4.39343505859375,9.8871431350708,0.6777670383453369,-0.22911277413368225
1746620298221259000,4.410259033203125,9.978070259094238,0.6831508874893188,-0.24825534224510193
1746620298238069000,4.427069091796875,10.06421184539795,0.631106972694397,-0.2584248483181
1746620298254875600,4.443875732421875,10.069596290588379,0.5832505226135254,-0.2679961323738098
1746620298271664400,4.460664306640625,10.083354949951172,0.6071787476539612,-0.3206382393836975
1746620298288478000,4.47747802734375,10.073782920837402,0.6215356588363647,-0.2679961323738098
1746620298305273000,4.494273193359375,10.04566764831543,0.625723123550415,-0.1866401731967926
1746620298322083600,4.51108349609375,9.978668212890625,0.6251249313354492,-0.19142581522464752
1746620298338891800,4.527891845703125,9.891928672790527,0.6634100675582886,-0.2386840581893921
1746620298355712500,4.54471240234375,9.753145217895508,0.6867401003837585,-0.2763710021972656
1746620298372513300,4.56151318359375,9.595816612243652,0.6903293132781982,-0.24287149310112
1746620298389332000,4.57833203125,9.442676544189453,0.7615157961845398,-0.21774685382843018
1746620298406138400,4.595138427734375,9.399605751037598,0.7657032608985901,-0.21774685382843018
1746620298422946000,4.611946044921875,9.44746208190918,0.6993024349212646,-0.251844584941864
1746620298439739100,4.6287392578125,9.552745819091797,0.633499801158905,-0.3332005441188812
1746620298456566000,4.64556591796875,9.667003631591797,0.6538388133049011,-0.4624129831790924
1746620298473372200,4.6623720703125,9.809974670410156,0.631106972694397,-0.5156532526016235
1746620298490177300,4.67917724609375,9.906285285949707,0.5784648656845093,-0.4827519655227661
1746620298506991600,4.69599169921875,9.954740524291992,0.5641079545021057,-0.3732803463935852
1746620298523796700,4.712796630859375,9.93978500366211,0.6305087804794312,-0.28654050827026367
1746620298540586000,4.7295859375,9.792028427124023,0.7052844762802124,-0.1381855010986328
1746620298557427500,4.746427490234375,9.715457916259766,0.7668996453285217,-0.10408778488636017
1746620298574220800,4.763220703125,9.719645500183105,0.7668996453285217,-0.15194423496723175
1746620298591043800,4.7800439453125,9.772886276245117,0.7100701332092285,-0.1663011759519577
1746620298607867400,4.796867431640625,9.824930191040039,0.7154539823532104,-0.22372891008853912
1746620298624644400,4.813644287109375,9.872187614440918,0.7734799385070801,-0.24287149310112
1746620298641453800,4.830453857421875,9.872187614440918,0.7728816866874695,-0.17587246000766754
1746620298658277600,4.847277587890625,9.849455833435059,0.7292127013206482,-0.1094716340303421
1746620298675070500,4.864070556640625,9.768698692321777,0.6813562512397766,-0.09032905846834183
1746620298691894800,4.880894775390625,9.66819953918457,0.6711867451667786,-0.15672987699508667
1746620298708704000,4.8977041015625,9.648459434509277,0.6759724020957947,-0.21415762603282928
1746620298725511000,4.914510986328125,9.662816047668457,0.6999006271362305,-0.19980068504810333
1746620298742314800,4.931314697265625,9.69631576538086,0.7190431952476501,-0.12323036789894104
1746620298759095000,4.948094970703125,9.729815483093262,0.7573283910751343,-0.0323031060397625
1746620298775924000,4.964924072265625,9.758528709411621,0.776470959186554,-0.02751746028661728
1746620298792731000,4.98173095703125,9.772886276245117,0.7621139883995056,-0.028115665540099144
1746620298809540400,4.998540283203125,9.715457916259766,0.7806583642959595,-0.037088751792907715
1746620298826347800,5.01534765625,9.614361763000488,0.8428717851638794,-0.06520441919565201
1746620298843146200,5.032146240234375,9.53779125213623,0.8997012972831726,-0.04546362906694412
1746620298859959800,5.048959716796875,9.542576789855957,0.8895317912101746,-0.0077766734175384045
1746620298876777200,5.065777099609375,9.624530792236328,0.8183453679084778,-0.026919255033135414
1746620298893578500,5.08257861328125,9.77707290649414,0.753140926361084,-0.11844471842050552
1746620298910391300,5.099391357421875,9.906285285949707,0.7393822073936462,-0.17168502509593964
1746620298927201300,5.116201171875,9.997213363647461,0.7399803996086121,-0.15254244208335876
1746620298943990000,5.132989990234375,9.988240242004395,0.7112665176391602,-0.08614161610603333
1746620298960812300,5.149812255859375,9.91705322265625,0.672383189201355,-0.038285162299871445
1746620298977617400,5.166617431640625,9.768698692321777,0.6909275650978088,-0.09990034252405167
1746620298994417400,5.18341748046875,9.57188892364502,0.7286145091056824,-0.20398813486099243
1746620299011243300,5.2002431640625,9.485747337341309,0.7328019142150879,-0.19920247793197632
1746620299028066300,5.21706640625,9.605986595153809,0.6807580590248108,-0.18544375896453857
1746620299044875300,5.233875244140625,9.725627899169922,0.666999340057373,-0.1621137410402298
1746620299061673000,5.2506728515625,9.759127616882324,0.666999340057373,-0.15254244208335876
1746620299078474800,5.267474853515625,9.78245735168457,0.6771687865257263,-0.2147558331489563
1746620299095296500,5.284296630859375,9.734601020812988,0.6861419081687927,-0.21415762603282928
1746620299112106000,5.30110595703125,9.672985076904297,0.6807580590248108,-0.1136590763926506
1746620299128913000,5.317912841796875,9.659226417541504,0.6801598072052002,-0.0568295381963253
1746620299145722400,5.334722412109375,9.726225852966309,0.6520441770553589,-0.028115665540099144
1746620299162530000,5.351530029296875,9.830911636352539,0.6382854580879211,-0.11425728350877762
1746620299179323400,5.368323486328125,9.868598937988281,0.6436693072319031,-0.1621137410402298
1746620299196133600,5.385133544921875,9.749555587768555,0.6526423692703247,-0.12861421704292297
1746620299212957000,5.40195703125,9.691530227661133,0.7238288521766663,-0.09451649338006973
1746620299229764900,5.418764892578125,9.659226417541504,0.6705885529518127,-0.008973085321485996
1746620299246555400,5.435555419921875,9.81655502319336,0.6759724020957947,-0.028115665540099144
1746620299263363300,5.45236328125,9.946365356445312,0.5814558863639832,-0.07657032459974289
1746620299280176400,5.46917626953125,9.979267120361328,0.5868397355079651,-0.19621145725250244
1746620299296984000,5.485984130859375,9.992427825927734,0.6544370055198669,-0.2392822653055191
1746620299313797000,5.502797119140625,9.90149974822998,0.706480860710144,-0.20997019112110138
1746620299330600700,5.5196005859375,9.720243453979492,0.7190431952476501,-0.13280165195465088
1746620299347410200,5.53641015625,9.647860527038574,0.8141579031944275,-0.06999006122350693
1746620299364204300,5.553204345703125,9.56770133972168,0.7752745151519775,-0.04127619042992592
1746620299381027000,5.570027099609375,9.54796028137207,0.7663014531135559,-0.11306086927652359
1746620299397834200,5.586834228515625,9.595816612243652,0.7806583642959595,-0.11306086927652359
1746620299414641200,5.60364111328125,9.753743171691895,0.7621139883995056,-0.05623133108019829
1746620299431451400,5.620451416015625,10.010972023010254,0.7782655358314514,-0.08554340898990631
